magnetx,magnety,magnetz,gyrox,gyroy,gyroz,accelerox,acceleroy,acceleroz
0.0,0.0,0.0,0.0,0.0,0.0,0.0,0.0,0.0
0.0,0.0,0.0,0.0,0.0,0.0,0.0,0.0,0.0
0.0,0.0,0.0,0.0,0.0,0.0,0.0,0.0,0.0
0.0,0.0,0.0,0.0,0.0,0.0,0.0,0.0,0.0
0.0,0.0,0.0,0.0,0.0,0.0,0.0,0.0,0.0
0.0,0.0,0.0,0.0,0.0,0.0,0.0,0.0,0.0
0.0,0.0,0.0,0.0,0.0,0.0,0.0,0.0,0.0
0.0,0.0,0.0,0.0,0.0,0.0,0.0,0.0,0.0
0.0,0.0,0.0,0.0,0.0,0.0,0.0,0.0,0.0
0.0,0.0,0.0,0.0,0.0,0.0,0.0,0.0,0.0
0.0,0.0,0.0,0.0,0.0,0.0,0.0,0.0,0.0
0.0,0.0,0.0,0.0,0.0,0.0,0.0,0.0,0.0
0.0,0.0,0.0,0.0,0.0,0.0,0.0,0.0,0.0
0.0,0.0,0.0,0.0,0.0,0.0,0.0,0.0,0.0
0.0,0.0,0.0,0.0,0.0,0.0,0.0,0.0,0.0
0.0,0.0,0.0,0.0,0.0,0.0,0.0,0.0,0.0
0.0,0.0,0.0,0.0,0.0,0.0,0.0,0.0,0.0
0.0,0.0,0.0,0.0,0.0,0.0,0.0,0.0,0.0
0.0,0.0,0.0,0.0,0.0,0.0,0.0,0.0,0.0
0.0,0.0,0.0,0.0,0.0,0.0,0.0,0.0,0.0
0.0,0.0,0.0,0.0,0.0,0.0,0.0,0.0,0.0
0.0,0.0,0.0,0.0,0.0,0.0,0.0,0.0,0.0
0.0,0.0,0.0,0.0,0.0,0.0,0.0,0.0,0.0
0.0,0.0,0.0,0.0,0.0,0.0,0.0,0.0,0.0
0.0,0.0,0.0,0.0,0.0,0.0,0.0,0.0,0.0
0.0,0.0,0.0,0.0,0.0,0.0,0.0,0.0,0.0
0.0,0.0,0.0,0.0,0.0,0.0,0.0,0.0,0.0
0.0,0.0,0.0,0.0,0.0,0.0,0.0,0.0,0.0
0.0,0.0,0.0,0.0,0.0,0.0,0.0,0.0,0.0
0.0,0.0,0.0,0.0,0.0,0.0,0.0,0.0,0.0
0.0,0.0,0.0,0.0,0.0,0.0,0.0,0.0,0.0
0.0,0.0,0.0,0.0,0.0,0.0,0.0,0.0,0.0
0.0,0.0,0.0,0.0,0.0,0.0,0.0,0.0,0.0
0.0,0.0,0.0,0.0,0.0,0.0,0.0,0.0,0.0
0.0,0.0,0.0,0.0,0.0,0.0,0.0,0.0,0.0
0.0,0.0,0.0,0.0,0.0,0.0,0.0,0.0,0.0
2.507019,-29.92096,-18.812561,-0.02658081,0.042404175,0.23100281,0.0,0.0,-0.0
2.507019,-29.92096,-18.812561,-0.02658081,0.042404175,0.23100281,0.0,0.0,-0.0
2.507019,-29.92096,-18.812561,-0.02658081,0.042404175,0.23100281,0.0,0.0,-0.0
2.507019,-29.92096,-18.812561,-0.02658081,0.042404175,0.23100281,0.0,0.0,-0.0
2.507019,-29.92096,-18.812561,-0.02658081,0.042404175,0.23100281,0.0,0.0,-0.0
2.507019,-29.92096,-18.812561,-0.02658081,0.042404175,0.23100281,0.0,0.0,-0.0
2.507019,-29.92096,-18.812561,-0.02658081,0.042404175,0.23100281,0.0,0.0,-0.0
1.4923096,-30.12085,-18.928528,-0.02658081,0.042404175,0.23100281,0.0,0.0,-0.0
1.4923096,-30.12085,-18.928528,-0.02658081,0.042404175,0.23100281,0.0,0.0,-0.0
1.4923096,-30.12085,-18.928528,-0.02658081,0.042404175,0.23100281,0.0,0.0,-0.0
1.4923096,-30.12085,-18.928528,-0.0023040771,0.06048584,-0.053771973,-0.066156626,0.26526117,-0.22058296
1.4923096,-30.12085,-18.928528,-0.0023040771,0.06048584,-0.053771973,-0.066156626,0.26526117,-0.22058296
1.4923096,-30.12085,-18.928528,-0.0023040771,0.06048584,-0.053771973,-0.066156626,0.26526117,-0.22058296
1.4923096,-30.12085,-18.928528,-0.0023040771,0.06048584,-0.053771973,-0.066156626,0.26526117,-0.22058296
1.4923096,-30.12085,-18.928528,-0.0023040771,0.06048584,-0.053771973,-0.066156626,0.26526117,-0.22058296
1.4923096,-30.12085,-18.928528,-0.0023040771,0.06048584,-0.053771973,-0.066156626,0.26526117,-0.22058296
1.4923096,-30.12085,-18.928528,-0.0023040771,0.06048584,-0.053771973,-0.066156626,0.26526117,-0.22058296
1.4923096,-30.12085,-18.928528,-0.0023040771,0.06048584,-0.053771973,-0.066156626,0.26526117,-0.22058296
1.4923096,-30.12085,-18.928528,-0.0023040771,0.06048584,-0.053771973,-0.066156626,0.26526117,-0.22058296
1.4923096,-30.12085,-18.928528,-0.0023040771,0.06048584,-0.053771973,-0.066156626,0.26526117,-0.22058296
1.4923096,-30.12085,-18.928528,-0.0023040771,0.06048584,-0.053771973,-0.066156626,0.26526117,-0.22058296
1.4923096,-30.12085,-18.928528,-0.0023040771,0.06048584,-0.053771973,-0.066156626,0.26526117,-0.22058296
1.4923096,-30.12085,-18.928528,-0.0023040771,0.06048584,-0.053771973,-0.066156626,0.26526117,-0.22058296
1.4923096,-30.12085,-18.928528,-0.0023040771,0.06048584,-0.053771973,-0.066156626,0.26526117,-0.22058296
1.4923096,-30.12085,-18.928528,-0.0023040771,0.06048584,-0.053771973,-0.066156626,0.26526117,-0.22058296
1.4923096,-30.12085,-18.928528,-0.0023040771,0.06048584,-0.053771973,-0.066156626,0.26526117,-0.22058296
1.4923096,-30.12085,-18.928528,-0.0023040771,0.06048584,-0.053771973,-0.066156626,0.26526117,-0.22058296
0.45928955,-30.212402,-19.136047,-0.0023040771,0.06048584,-0.053771973,-0.066156626,0.26526117,-0.22058296
0.45928955,-30.212402,-19.136047,-0.0023040771,0.06048584,-0.053771973,-0.066156626,0.26526117,-0.22058296
0.45928955,-30.212402,-19.136047,0.047607422,0.070373535,0.15809631,-0.1364035,0.0064516664,0.36064816
0.45928955,-30.212402,-19.136047,0.047607422,0.070373535,0.15809631,-0.1364035,0.0064516664,0.36064816
0.45928955,-30.212402,-19.136047,0.047607422,0.070373535,0.15809631,-0.1364035,0.0064516664,0.36064816
0.45928955,-30.212402,-19.136047,0.047607422,0.070373535,0.15809631,-0.1364035,0.0064516664,0.36064816
0.45928955,-30.212402,-19.136047,0.047607422,0.070373535,0.15809631,-0.1364035,0.0064516664,0.36064816
0.45928955,-30.212402,-19.136047,0.047607422,0.070373535,0.15809631,-0.1364035,0.0064516664,0.36064816
0.45928955,-30.212402,-19.136047,0.047607422,0.070373535,0.15809631,-0.1364035,0.0064516664,0.36064816
0.45928955,-30.212402,-19.136047,0.047607422,0.070373535,0.15809631,-0.1364035,0.0064516664,0.36064816
-0.8331299,-30.090332,-19.229126,0.047607422,0.070373535,0.15809631,-0.1364035,0.0064516664,0.36064816
-0.8331299,-30.090332,-19.229126,0.047607422,0.070373535,0.15809631,-0.1364035,0.0064516664,0.36064816
-0.8331299,-30.090332,-19.229126,0.047607422,0.070373535,0.15809631,-0.1364035,0.0064516664,0.36064816
-0.8331299,-30.090332,-19.229126,0.047607422,0.070373535,0.15809631,-0.1364035,0.0064516664,0.36064816
-0.8331299,-30.090332,-19.229126,0.047607422,0.070373535,0.15809631,-0.1364035,0.0064516664,0.36064816
-0.8331299,-30.090332,-19.229126,0.047607422,0.070373535,0.15809631,-0.1364035,0.0064516664,0.36064816
-0.8331299,-30.090332,-19.229126,0.047607422,0.070373535,0.15809631,-0.1364035,0.0064516664,0.36064816
-0.8331299,-30.090332,-19.229126,0.047607422,0.070373535,0.15809631,-0.1364035,0.0064516664,0.36064816
-0.8331299,-30.090332,-19.229126,0.047607422,0.070373535,0.15809631,-0.1364035,0.0064516664,0.36064816
-0.8331299,-30.090332,-19.229126,0.047607422,0.070373535,0.15809631,-0.1364035,0.0064516664,0.36064816
-0.8331299,-30.090332,-19.229126,0.047607422,0.070373535,0.15809631,-0.1364035,0.0064516664,0.36064816
-0.8331299,-30.090332,-19.229126,0.047607422,0.070373535,0.15809631,-0.1364035,0.0064516664,0.36064816
-0.8331299,-30.090332,-19.229126,-0.1307373,0.1048584,0.277771,-0.49854016,-0.4062919,0.19563389
-0.8331299,-30.090332,-19.229126,-0.1307373,0.1048584,0.277771,-0.49854016,-0.4062919,0.19563389
-0.8331299,-30.090332,-19.229126,-0.1307373,0.1048584,0.277771,-0.49854016,-0.4062919,0.19563389
-0.8331299,-30.090332,-19.229126,-0.1307373,0.1048584,0.277771,-0.49854016,-0.4062919,0.19563389
-0.8331299,-30.090332,-19.229126,-0.1307373,0.1048584,0.277771,-0.49854016,-0.4062919,0.19563389
-0.8331299,-30.090332,-19.229126,-0.1307373,0.1048584,0.277771,-0.49854016,-0.4062919,0.19563389
-0.8331299,-30.090332,-19.229126,-0.1307373,0.1048584,0.277771,-0.49854016,-0.4062919,0.19563389
-0.8331299,-30.090332,-19.229126,-0.1307373,0.1048584,0.277771,-0.49854016,-0.4062919,0.19563389
-2.0523071,-29.289246,-19.598389,-0.1307373,0.1048584,0.277771,-0.49854016,-0.4062919,0.19563389
-2.0523071,-29.289246,-19.598389,-0.1307373,0.1048584,0.277771,-0.49854016,-0.4062919,0.19563389
-2.0523071,-29.289246,-19.598389,-0.1307373,0.1048584,0.277771,-0.49854016,-0.4062919,0.19563389
-2.0523071,-29.289246,-19.598389,-0.1307373,0.1048584,0.277771,-0.49854016,-0.4062919,0.19563389
-2.0523071,-29.289246,-19.598389,-0.1307373,0.1048584,0.277771,-0.49854016,-0.4062919,0.19563389
-2.0523071,-29.289246,-19.598389,-0.1307373,0.1048584,0.277771,-0.49854016,-0.4062919,0.19563389
-2.0523071,-29.289246,-19.598389,-0.1307373,0.1048584,0.277771,-0.49854016,-0.4062919,0.19563389
-2.0523071,-29.289246,-19.598389,-0.1307373,0.1048584,0.277771,-0.49854016,-0.4062919,0.19563389
-2.0523071,-29.289246,-19.598389,-0.1307373,0.1048584,0.277771,-0.49854016,-0.4062919,0.19563389
-2.0523071,-29.289246,-19.598389,-0.1307373,0.1048584,0.277771,-0.49854016,-0.4062919,0.19563389
-2.0523071,-29.289246,-19.598389,-0.1307373,0.1048584,0.277771,-0.49854016,-0.4062919,0.19563389
-2.0523071,-29.289246,-19.598389,-0.1307373,0.1048584,0.277771,-0.49854016,-0.4062919,0.19563389
-2.0523071,-29.289246,-19.598389,-0.05783081,0.08934021,0.18977356,-0.601511,-0.030843943,-0.4185419
-2.0523071,-29.289246,-19.598389,-0.05783081,0.08934021,0.18977356,-0.601511,-0.030843943,-0.4185419
-2.0523071,-29.289246,-19.598389,-0.05783081,0.08934021,0.18977356,-0.601511,-0.030843943,-0.4185419
-2.0523071,-29.289246,-19.598389,-0.05783081,0.08934021,0.18977356,-0.601511,-0.030843943,-0.4185419
-2.0523071,-29.289246,-19.598389,-0.05783081,0.08934021,0.18977356,-0.601511,-0.030843943,-0.4185419
-2.0523071,-29.289246,-19.598389,-0.05783081,0.08934021,0.18977356,-0.601511,-0.030843943,-0.4185419
-2.0523071,-29.289246,-19.598389,-0.05783081,0.08934021,0.18977356,-0.601511,-0.030843943,-0.4185419
-2.0523071,-29.289246,-19.598389,-0.05783081,0.08934021,0.18977356,-0.601511,-0.030843943,-0.4185419
-1.2069702,-28.294373,-19.84253,-0.05783081,0.08934021,0.18977356,-0.601511,-0.030843943,-0.4185419
-1.2069702,-28.294373,-19.84253,-0.05783081,0.08934021,0.18977356,-0.601511,-0.030843943,-0.4185419
-1.2069702,-28.294373,-19.84253,-0.05783081,0.08934021,0.18977356,-0.601511,-0.030843943,-0.4185419
-1.2069702,-28.294373,-19.84253,-0.05783081,0.08934021,0.18977356,-0.601511,-0.030843943,-0.4185419
-1.2069702,-28.294373,-19.84253,-0.05783081,0.08934021,0.18977356,-0.601511,-0.030843943,-0.4185419
-1.2069702,-28.294373,-19.84253,-0.05783081,0.08934021,0.18977356,-0.601511,-0.030843943,-0.4185419
-1.2069702,-28.294373,-19.84253,-0.05783081,0.08934021,0.18977356,-0.601511,-0.030843943,-0.4185419
-1.2069702,-28.294373,-19.84253,-0.05783081,0.08934021,0.18977356,-0.601511,-0.030843943,-0.4185419
-1.2069702,-28.294373,-19.84253,-0.05783081,0.08934021,0.18977356,-0.601511,-0.030843943,-0.4185419
-1.2069702,-28.294373,-19.84253,-0.05783081,0.08934021,0.18977356,-0.601511,-0.030843943,-0.4185419
-1.2069702,-28.294373,-19.84253,-0.05783081,0.08934021,0.18977356,-0.601511,-0.030843943,-0.4185419
-1.2069702,-28.294373,-19.84253,-0.05783081,0.08934021,0.18977356,-0.601511,-0.030843943,-0.4185419
-1.2069702,-28.294373,-19.84253,-0.0011444092,-0.18104553,-0.07846069,-0.08764964,0.09236556,0.42093468
-1.2069702,-28.294373,-19.84253,-0.0011444092,-0.18104553,-0.07846069,-0.08764964,0.09236556,0.42093468
-1.2069702,-28.294373,-19.84253,-0.0011444092,-0.18104553,-0.07846069,-0.08764964,0.09236556,0.42093468
-1.2069702,-28.294373,-19.84253,-0.0011444092,-0.18104553,-0.07846069,-0.08764964,0.09236556,0.42093468
-1.2069702,-28.294373,-19.84253,-0.0011444092,-0.18104553,-0.07846069,-0.08764964,0.09236556,0.42093468
-1.2069702,-28.294373,-19.84253,-0.0011444092,-0.18104553,-0.07846069,-0.08764964,0.09236556,0.42093468
-1.2069702,-28.294373,-19.84253,-0.0011444092,-0.18104553,-0.07846069,-0.08764964,0.09236556,0.42093468
-1.2069702,-28.294373,-19.84253,-0.0011444092,-0.18104553,-0.07846069,-0.08764964,0.09236556,0.42093468
-1.2069702,-28.294373,-19.84253,-0.0011444092,-0.18104553,-0.07846069,-0.08764964,0.09236556,0.42093468
5.256653,-28.771973,-20.30487,-0.0011444092,-0.18104553,-0.07846069,-0.08764964,0.09236556,0.42093468
5.256653,-28.771973,-20.30487,-0.0011444092,-0.18104553,-0.07846069,-0.08764964,0.09236556,0.42093468
5.256653,-28.771973,-20.30487,-0.0011444092,-0.18104553,-0.07846069,-0.08764964,0.09236556,0.42093468
5.256653,-28.771973,-20.30487,-0.0011444092,-0.18104553,-0.07846069,-0.08764964,0.09236556,0.42093468
5.256653,-28.771973,-20.30487,-0.0011444092,-0.18104553,-0.07846069,-0.08764964,0.09236556,0.42093468
5.256653,-28.771973,-20.30487,-0.0011444092,-0.18104553,-0.07846069,-0.08764964,0.09236556,0.42093468
5.256653,-28.771973,-20.30487,-0.0011444092,-0.18104553,-0.07846069,-0.08764964,0.09236556,0.42093468
5.256653,-28.771973,-20.30487,-0.0011444092,-0.18104553,-0.07846069,-0.08764964,0.09236556,0.42093468
5.256653,-28.771973,-20.30487,-0.0011444092,-0.18104553,-0.07846069,-0.08764964,0.09236556,0.42093468
5.256653,-28.771973,-20.30487,-0.0011444092,-0.18104553,-0.07846069,-0.08764964,0.09236556,0.42093468
5.256653,-28.771973,-20.30487,-0.0011444092,-0.18104553,-0.07846069,-0.08764964,0.09236556,0.42093468
5.256653,-28.771973,-20.30487,0.010894775,0.10935974,-0.4631195,0.8990196,-0.08533603,0.8668871
5.256653,-28.771973,-20.30487,0.010894775,0.10935974,-0.4631195,0.8990196,-0.08533603,0.8668871
5.256653,-28.771973,-20.30487,0.010894775,0.10935974,-0.4631195,0.8990196,-0.08533603,0.8668871
5.256653,-28.771973,-20.30487,0.010894775,0.10935974,-0.4631195,0.8990196,-0.08533603,0.8668871
5.256653,-28.771973,-20.30487,0.010894775,0.10935974,-0.4631195,0.8990196,-0.08533603,0.8668871
5.256653,-28.771973,-20.30487,0.010894775,0.10935974,-0.4631195,0.8990196,-0.08533603,0.8668871
5.256653,-28.771973,-20.30487,0.010894775,0.10935974,-0.4631195,0.8990196,-0.08533603,0.8668871
5.256653,-28.771973,-20.30487,0.010894775,0.10935974,-0.4631195,0.8990196,-0.08533603,0.8668871
5.256653,-28.771973,-20.30487,0.010894775,0.10935974,-0.4631195,0.8990196,-0.08533603,0.8668871
11.941528,-29.73938,-21.18988,0.010894775,0.10935974,-0.4631195,0.8990196,-0.08533603,0.8668871
11.941528,-29.73938,-21.18988,0.010894775,0.10935974,-0.4631195,0.8990196,-0.08533603,0.8668871
11.941528,-29.73938,-21.18988,0.010894775,0.10935974,-0.4631195,0.8990196,-0.08533603,0.8668871
11.941528,-29.73938,-21.18988,0.010894775,0.10935974,-0.4631195,0.8990196,-0.08533603,0.8668871
11.941528,-29.73938,-21.18988,0.010894775,0.10935974,-0.4631195,0.8990196,-0.08533603,0.8668871
11.941528,-29.73938,-21.18988,0.010894775,0.10935974,-0.4631195,0.8990196,-0.08533603,0.8668871
11.941528,-29.73938,-21.18988,0.010894775,0.10935974,-0.4631195,0.8990196,-0.08533603,0.8668871
11.941528,-29.73938,-21.18988,0.010894775,0.10935974,-0.4631195,0.8990196,-0.08533603,0.8668871
11.941528,-29.73938,-21.18988,-0.5453644,0.11256409,0.009353638,0.965676,0.8371068,0.7470684
11.941528,-29.73938,-21.18988,-0.5453644,0.11256409,0.009353638,0.965676,0.8371068,0.7470684
11.941528,-29.73938,-21.18988,-0.5453644,0.11256409,0.009353638,0.965676,0.8371068,0.7470684
11.941528,-29.73938,-21.18988,-0.5453644,0.11256409,0.009353638,0.965676,0.8371068,0.7470684
11.941528,-29.73938,-21.18988,-0.5453644,0.11256409,0.009353638,0.965676,0.8371068,0.7470684
11.941528,-29.73938,-21.18988,-0.5453644,0.11256409,0.009353638,0.965676,0.8371068,0.7470684
11.941528,-29.73938,-21.18988,-0.5453644,0.11256409,0.009353638,0.965676,0.8371068,0.7470684
11.941528,-29.73938,-21.18988,-0.5453644,0.11256409,0.009353638,0.965676,0.8371068,0.7470684
11.941528,-29.73938,-21.18988,-0.5453644,0.11256409,0.009353638,0.965676,0.8371068,0.7470684
11.941528,-29.73938,-21.18988,-0.5453644,0.11256409,0.009353638,0.965676,0.8371068,0.7470684
11.941528,-29.73938,-21.18988,-0.5453644,0.11256409,0.009353638,0.965676,0.8371068,0.7470684
11.941528,-29.73938,-21.18988,-0.5453644,0.11256409,0.009353638,0.965676,0.8371068,0.7470684
13.485718,-29.52118,-22.445679,-0.5453644,0.11256409,0.009353638,0.965676,0.8371068,0.7470684
13.485718,-29.52118,-22.445679,-0.5453644,0.11256409,0.009353638,0.965676,0.8371068,0.7470684
13.485718,-29.52118,-22.445679,-0.5453644,0.11256409,0.009353638,0.965676,0.8371068,0.7470684
13.485718,-29.52118,-22.445679,-0.5453644,0.11256409,0.009353638,0.965676,0.8371068,0.7470684
13.485718,-29.52118,-22.445679,-0.5453644,0.11256409,0.009353638,0.965676,0.8371068,0.7470684
13.485718,-29.52118,-22.445679,-0.5453644,0.11256409,0.009353638,0.965676,0.8371068,0.7470684
13.485718,-29.52118,-22.445679,0.64378357,-0.251297,0.5085907,-1.121905,-0.11622244,-1.2509356
13.485718,-29.52118,-22.445679,0.64378357,-0.251297,0.5085907,-1.121905,-0.11622244,-1.2509356
13.485718,-29.52118,-22.445679,0.64378357,-0.251297,0.5085907,-1.121905,-0.11622244,-1.2509356
13.485718,-29.52118,-22.445679,0.64378357,-0.251297,0.5085907,-1.121905,-0.11622244,-1.2509356
13.485718,-29.52118,-22.445679,0.64378357,-0.251297,0.5085907,-1.121905,-0.11622244,-1.2509356
13.485718,-29.52118,-22.445679,0.64378357,-0.251297,0.5085907,-1.121905,-0.11622244,-1.2509356
13.485718,-29.52118,-22.445679,0.64378357,-0.251297,0.5085907,-1.121905,-0.11622244,-1.2509356
13.485718,-29.52118,-22.445679,0.64378357,-0.251297,0.5085907,-1.121905,-0.11622244,-1.2509356
13.485718,-29.52118,-22.445679,0.64378357,-0.251297,0.5085907,-1.121905,-0.11622244,-1.2509356
13.485718,-29.52118,-22.445679,0.64378357,-0.251297,0.5085907,-1.121905,-0.11622244,-1.2509356
13.485718,-29.52118,-22.445679,0.64378357,-0.251297,0.5085907,-1.121905,-0.11622244,-1.2509356
13.485718,-29.52118,-22.445679,0.64378357,-0.251297,0.5085907,-1.121905,-0.11622244,-1.2509356
13.485718,-29.52118,-22.445679,0.64378357,-0.251297,0.5085907,-1.121905,-0.11622244,-1.2509356
13.485718,-29.52118,-22.445679,0.64378357,-0.251297,0.5085907,-1.121905,-0.11622244,-1.2509356
14.971924,-30.867004,-24.154663,0.64378357,-0.251297,0.5085907,-1.121905,-0.11622244,-1.2509356
14.971924,-30.867004,-24.154663,0.64378357,-0.251297,0.5085907,-1.121905,-0.11622244,-1.2509356
14.971924,-30.867004,-24.154663,0.64378357,-0.251297,0.5085907,-1.121905,-0.11622244,-1.2509356
14.971924,-30.867004,-24.154663,0.64378357,-0.251297,0.5085907,-1.121905,-0.11622244,-1.2509356
14.971924,-30.867004,-24.154663,0.64378357,-0.251297,0.5085907,-1.121905,-0.11622244,-1.2509356
14.971924,-30.867004,-24.154663,0.64378357,-0.251297,0.5085907,-1.121905,-0.11622244,-1.2509356
14.971924,-30.867004,-24.154663,-0.28944397,-0.029159546,0.29951477,-1.1510144,-0.5425873,0.8461962
14.971924,-30.867004,-24.154663,-0.28944397,-0.029159546,0.29951477,-1.1510144,-0.5425873,0.8461962
14.971924,-30.867004,-24.154663,-0.28944397,-0.029159546,0.29951477,-1.1510144,-0.5425873,0.8461962
14.971924,-30.867004,-24.154663,-0.28944397,-0.029159546,0.29951477,-1.1510144,-0.5425873,0.8461962
14.971924,-30.867004,-24.154663,-0.28944397,-0.029159546,0.29951477,-1.1510144,-0.5425873,0.8461962
14.971924,-30.867004,-24.154663,-0.28944397,-0.029159546,0.29951477,-1.1510144,-0.5425873,0.8461962
14.971924,-30.867004,-24.154663,-0.28944397,-0.029159546,0.29951477,-1.1510144,-0.5425873,0.8461962
14.971924,-30.867004,-24.154663,-0.28944397,-0.029159546,0.29951477,-1.1510144,-0.5425873,0.8461962
14.971924,-30.867004,-24.154663,-0.28944397,-0.029159546,0.29951477,-1.1510144,-0.5425873,0.8461962
14.971924,-30.867004,-24.154663,-0.28944397,-0.029159546,0.29951477,-1.1510144,-0.5425873,0.8461962
14.971924,-30.867004,-24.154663,-0.28944397,-0.029159546,0.29951477,-1.1510144,-0.5425873,0.8461962
14.971924,-30.867004,-24.154663,-0.28944397,-0.029159546,0.29951477,-1.1510144,-0.5425873,0.8461962
14.971924,-30.867004,-24.154663,-0.28944397,-0.029159546,0.29951477,-1.1510144,-0.5425873,0.8461962
14.971924,-30.867004,-24.154663,-0.28944397,-0.029159546,0.29951477,-1.1510144,-0.5425873,0.8461962
14.971924,-30.867004,-24.154663,-0.28944397,-0.029159546,0.29951477,-1.1510144,-0.5425873,0.8461962
14.971924,-30.867004,-24.154663,-0.28944397,-0.029159546,0.29951477,-1.1510144,-0.5425873,0.8461962
14.971924,-30.867004,-24.154663,-0.28944397,-0.029159546,0.29951477,-1.1510144,-0.5425873,0.8461962
14.971924,-30.867004,-24.154663,-0.28944397,-0.029159546,0.29951477,-1.1510144,-0.5425873,0.8461962
12.538147,-33.18329,-26.271057,-0.28944397,-0.029159546,0.29951477,-1.1510144,-0.5425873,0.8461962
12.538147,-33.18329,-26.271057,0.29675293,-0.3323059,0.4984436,-1.4616497,-1.2737017,-0.4237051
12.538147,-33.18329,-26.271057,0.29675293,-0.3323059,0.4984436,-1.4616497,-1.2737017,-0.4237051
12.538147,-33.18329,-26.271057,0.29675293,-0.3323059,0.4984436,-1.4616497,-1.2737017,-0.4237051
12.538147,-33.18329,-26.271057,0.29675293,-0.3323059,0.4984436,-1.4616497,-1.2737017,-0.4237051
12.538147,-33.18329,-26.271057,0.29675293,-0.3323059,0.4984436,-1.4616497,-1.2737017,-0.4237051
12.538147,-33.18329,-26.271057,0.29675293,-0.3323059,0.4984436,-1.4616497,-1.2737017,-0.4237051
12.538147,-33.18329,-26.271057,0.29675293,-0.3323059,0.4984436,-1.4616497,-1.2737017,-0.4237051
12.538147,-33.18329,-26.271057,0.29675293,-0.3323059,0.4984436,-1.4616497,-1.2737017,-0.4237051
12.538147,-33.18329,-26.271057,0.29675293,-0.3323059,0.4984436,-1.4616497,-1.2737017,-0.4237051
12.538147,-33.18329,-26.271057,0.29675293,-0.3323059,0.4984436,-1.4616497,-1.2737017,-0.4237051
12.538147,-33.18329,-26.271057,0.29675293,-0.3323059,0.4984436,-1.4616497,-1.2737017,-0.4237051
12.538147,-33.18329,-26.271057,0.29675293,-0.3323059,0.4984436,-1.4616497,-1.2737017,-0.4237051
12.538147,-33.18329,-26.271057,0.29675293,-0.3323059,0.4984436,-1.4616497,-1.2737017,-0.4237051
12.538147,-33.18329,-26.271057,0.29675293,-0.3323059,0.4984436,-1.4616497,-1.2737017,-0.4237051
12.538147,-33.18329,-26.271057,0.29675293,-0.3323059,0.4984436,-1.4616497,-1.2737017,-0.4237051
12.538147,-33.18329,-26.271057,0.29675293,-0.3323059,0.4984436,-1.4616497,-1.2737017,-0.4237051
12.538147,-33.18329,-26.271057,0.29675293,-0.3323059,0.4984436,-1.4616497,-1.2737017,-0.4237051
4.722595,-36.376953,-26.069641,0.29675293,-0.3323059,0.4984436,-1.4616497,-1.2737017,-0.4237051
4.722595,-36.376953,-26.069641,0.29675293,-0.3323059,0.4984436,-1.4616497,-1.2737017,-0.4237051
4.722595,-36.376953,-26.069641,0.29675293,-0.3323059,0.4984436,-1.4616497,-1.2737017,-0.4237051
4.722595,-36.376953,-26.069641,0.073898315,-0.026565552,0.89230347,-1.0523636,-0.9616303,-0.27380276
4.722595,-36.376953,-26.069641,0.073898315,-0.026565552,0.89230347,-1.0523636,-0.9616303,-0.27380276
4.722595,-36.376953,-26.069641,0.073898315,-0.026565552,0.89230347,-1.0523636,-0.9616303,-0.27380276
4.722595,-36.376953,-26.069641,0.073898315,-0.026565552,0.89230347,-1.0523636,-0.9616303,-0.27380276
4.722595,-36.376953,-26.069641,0.073898315,-0.026565552,0.89230347,-1.0523636,-0.9616303,-0.27380276
4.722595,-36.376953,-26.069641,0.073898315,-0.026565552,0.89230347,-1.0523636,-0.9616303,-0.27380276
4.722595,-36.376953,-26.069641,0.073898315,-0.026565552,0.89230347,-1.0523636,-0.9616303,-0.27380276
4.722595,-36.376953,-26.069641,0.073898315,-0.026565552,0.89230347,-1.0523636,-0.9616303,-0.27380276
4.722595,-36.376953,-26.069641,0.073898315,-0.026565552,0.89230347,-1.0523636,-0.9616303,-0.27380276
4.722595,-36.376953,-26.069641,0.073898315,-0.026565552,0.89230347,-1.0523636,-0.9616303,-0.27380276
4.722595,-36.376953,-26.069641,0.073898315,-0.026565552,0.89230347,-1.0523636,-0.9616303,-0.27380276
4.722595,-36.376953,-26.069641,0.073898315,-0.026565552,0.89230347,-1.0523636,-0.9616303,-0.27380276
4.722595,-36.376953,-26.069641,0.073898315,-0.026565552,0.89230347,-1.0523636,-0.9616303,-0.27380276
4.722595,-36.376953,-26.069641,0.073898315,-0.026565552,0.89230347,-1.0523636,-0.9616303,-0.27380276
4.722595,-36.376953,-26.069641,0.073898315,-0.026565552,0.89230347,-1.0523636,-0.9616303,-0.27380276
4.722595,-36.376953,-26.069641,0.073898315,-0.026565552,0.89230347,-1.0523636,-0.9616303,-0.27380276
-2.2598267,-36.602783,-26.332092,0.073898315,-0.026565552,0.89230347,-1.0523636,-0.9616303,-0.27380276
-2.2598267,-36.602783,-26.332092,0.073898315,-0.026565552,0.89230347,-1.0523636,-0.9616303,-0.27380276
-2.2598267,-36.602783,-26.332092,0.21763611,0.06903076,1.4771576,-0.7417864,-0.9399873,0.17571926
-2.2598267,-36.602783,-26.332092,0.21763611,0.06903076,1.4771576,-0.7417864,-0.9399873,0.17571926
-2.2598267,-36.602783,-26.332092,0.21763611,0.06903076,1.4771576,-0.7417864,-0.9399873,0.17571926
-2.2598267,-36.602783,-26.332092,0.21763611,0.06903076,1.4771576,-0.7417864,-0.9399873,0.17571926
-2.2598267,-36.602783,-26.332092,0.21763611,0.06903076,1.4771576,-0.7417864,-0.9399873,0.17571926
-2.2598267,-36.602783,-26.332092,0.21763611,0.06903076,1.4771576,-0.7417864,-0.9399873,0.17571926
-2.2598267,-36.602783,-26.332092,0.21763611,0.06903076,1.4771576,-0.7417864,-0.9399873,0.17571926
-2.2598267,-36.602783,-26.332092,0.21763611,0.06903076,1.4771576,-0.7417864,-0.9399873,0.17571926
-2.2598267,-36.602783,-26.332092,0.21763611,0.06903076,1.4771576,-0.7417864,-0.9399873,0.17571926
-2.2598267,-36.602783,-26.332092,0.21763611,0.06903076,1.4771576,-0.7417864,-0.9399873,0.17571926
-2.2598267,-36.602783,-26.332092,0.21763611,0.06903076,1.4771576,-0.7417864,-0.9399873,0.17571926
-2.2598267,-36.602783,-26.332092,0.21763611,0.06903076,1.4771576,-0.7417864,-0.9399873,0.17571926
-2.2598267,-36.602783,-26.332092,0.21763611,0.06903076,1.4771576,-0.7417864,-0.9399873,0.17571926
-2.2598267,-36.602783,-26.332092,0.21763611,0.06903076,1.4771576,-0.7417864,-0.9399873,0.17571926
-2.2598267,-36.602783,-26.332092,0.21763611,0.06903076,1.4771576,-0.7417864,-0.9399873,0.17571926
-2.2598267,-36.602783,-26.332092,0.21763611,0.06903076,1.4771576,-0.7417864,-0.9399873,0.17571926
-2.2598267,-36.602783,-26.332092,0.21763611,0.06903076,1.4771576,-0.7417864,-0.9399873,0.17571926
-2.2598267,-36.602783,-26.332092,0.21763611,0.06903076,1.4771576,-0.7417864,-0.9399873,0.17571926
-15.188599,-32.798767,-27.615356,-0.2291565,-0.16047668,0.9374237,-2.265463,0.28712696,-0.3330698
-15.188599,-32.798767,-27.615356,-0.2291565,-0.16047668,0.9374237,-2.265463,0.28712696,-0.3330698
-15.188599,-32.798767,-27.615356,-0.2291565,-0.16047668,0.9374237,-2.265463,0.28712696,-0.3330698
-15.188599,-32.798767,-27.615356,-0.2291565,-0.16047668,0.9374237,-2.265463,0.28712696,-0.3330698
-15.188599,-32.798767,-27.615356,-0.2291565,-0.16047668,0.9374237,-2.265463,0.28712696,-0.3330698
-15.188599,-32.798767,-27.615356,-0.2291565,-0.16047668,0.9374237,-2.265463,0.28712696,-0.3330698
-15.188599,-32.798767,-27.615356,-0.2291565,-0.16047668,0.9374237,-2.265463,0.28712696,-0.3330698
-15.188599,-32.798767,-27.615356,-0.2291565,-0.16047668,0.9374237,-2.265463,0.28712696,-0.3330698
-15.188599,-32.798767,-27.615356,-0.2291565,-0.16047668,0.9374237,-2.265463,0.28712696,-0.3330698
-15.188599,-32.798767,-27.615356,-0.2291565,-0.16047668,0.9374237,-2.265463,0.28712696,-0.3330698
-15.188599,-32.798767,-27.615356,-0.2291565,-0.16047668,0.9374237,-2.265463,0.28712696,-0.3330698
-15.188599,-32.798767,-27.615356,-0.2291565,-0.16047668,0.9374237,-2.265463,0.28712696,-0.3330698
-15.188599,-32.798767,-27.615356,-0.2291565,-0.16047668,0.9374237,-2.265463,0.28712696,-0.3330698
-15.188599,-32.798767,-27.615356,-0.2291565,-0.16047668,0.9374237,-2.265463,0.28712696,-0.3330698
-15.188599,-32.798767,-27.615356,-0.2291565,-0.16047668,0.9374237,-2.265463,0.28712696,-0.3330698
-15.188599,-32.798767,-27.615356,-0.2291565,-0.16047668,0.9374237,-2.265463,0.28712696,-0.3330698
-15.188599,-32.798767,-27.615356,-0.2291565,-0.16047668,0.9374237,-2.265463,0.28712696,-0.3330698
-15.188599,-32.798767,-27.615356,-0.2291565,-0.16047668,0.9374237,-2.265463,0.28712696,-0.3330698
-15.188599,-32.798767,-27.615356,-0.2291565,-0.16047668,0.9374237,-2.265463,0.28712696,-0.3330698
-15.188599,-32.798767,-27.615356,-0.2291565,-0.16047668,0.9374237,-2.265463,0.28712696,-0.3330698
-20.884705,-29.220581,-28.48816,0.19161987,-0.04647827,1.3591003,-2.4622703,-0.5043876,0.99876595
-20.884705,-29.220581,-28.48816,0.19161987,-0.04647827,1.3591003,-2.4622703,-0.5043876,0.99876595
-20.884705,-29.220581,-28.48816,0.19161987,-0.04647827,1.3591003,-2.4622703,-0.5043876,0.99876595
-20.884705,-29.220581,-28.48816,0.19161987,-0.04647827,1.3591003,-2.4622703,-0.5043876,0.99876595
-20.884705,-29.220581,-28.48816,0.19161987,-0.04647827,1.3591003,-2.4622703,-0.5043876,0.99876595
-20.884705,-29.220581,-28.48816,0.19161987,-0.04647827,1.3591003,-2.4622703,-0.5043876,0.99876595
-20.884705,-29.220581,-28.48816,0.19161987,-0.04647827,1.3591003,-2.4622703,-0.5043876,0.99876595
-20.884705,-29.220581,-28.48816,0.19161987,-0.04647827,1.3591003,-2.4622703,-0.5043876,0.99876595
-20.884705,-29.220581,-28.48816,0.19161987,-0.04647827,1.3591003,-2.4622703,-0.5043876,0.99876595
-20.884705,-29.220581,-28.48816,0.19161987,-0.04647827,1.3591003,-2.4622703,-0.5043876,0.99876595
-20.884705,-29.220581,-28.48816,0.19161987,-0.04647827,1.3591003,-2.4622703,-0.5043876,0.99876595
-20.884705,-29.220581,-28.48816,0.19161987,-0.04647827,1.3591003,-2.4622703,-0.5043876,0.99876595
-20.884705,-29.220581,-28.48816,0.19161987,-0.04647827,1.3591003,-2.4622703,-0.5043876,0.99876595
-20.884705,-29.220581,-28.48816,0.19161987,-0.04647827,1.3591003,-2.4622703,-0.5043876,0.99876595
-20.884705,-29.220581,-28.48816,0.19161987,-0.04647827,1.3591003,-2.4622703,-0.5043876,0.99876595
-20.884705,-29.220581,-28.48816,0.19161987,-0.04647827,1.3591003,-2.4622703,-0.5043876,0.99876595
-20.884705,-29.220581,-28.48816,0.19161987,-0.04647827,1.3591003,-2.4622703,-0.5043876,0.99876595
-20.884705,-29.220581,-28.48816,0.19161987,-0.04647827,1.3591003,-2.4622703,-0.5043876,0.99876595
-20.884705,-29.220581,-28.48816,0.19161987,-0.04647827,1.3591003,-2.4622703,-0.5043876,0.99876595
-20.884705,-29.220581,-28.48816,0.19161987,-0.04647827,1.3591003,-2.4622703,-0.5043876,0.99876595
-27.212524,-26.177979,-28.286743,0.21513367,-0.10032654,0.74490356,-0.87392366,0.22877653,-0.49351692
-27.212524,-26.177979,-28.286743,0.21513367,-0.10032654,0.74490356,-0.87392366,0.22877653,-0.49351692
-27.212524,-26.177979,-28.286743,0.21513367,-0.10032654,0.74490356,-0.87392366,0.22877653,-0.49351692
-27.212524,-26.177979,-28.286743,0.21513367,-0.10032654,0.74490356,-0.87392366,0.22877653,-0.49351692
-27.212524,-26.177979,-28.286743,0.21513367,-0.10032654,0.74490356,-0.87392366,0.22877653,-0.49351692
-27.212524,-26.177979,-28.286743,0.21513367,-0.10032654,0.74490356,-0.87392366,0.22877653,-0.49351692
-27.212524,-26.177979,-28.286743,0.21513367,-0.10032654,0.74490356,-0.87392366,0.22877653,-0.49351692
-27.212524,-26.177979,-28.286743,0.21513367,-0.10032654,0.74490356,-0.87392366,0.22877653,-0.49351692
-27.212524,-26.177979,-28.286743,0.21513367,-0.10032654,0.74490356,-0.87392366,0.22877653,-0.49351692
-27.212524,-26.177979,-28.286743,0.21513367,-0.10032654,0.74490356,-0.87392366,0.22877653,-0.49351692
-27.212524,-26.177979,-28.286743,0.21513367,-0.10032654,0.74490356,-0.87392366,0.22877653,-0.49351692
-27.212524,-26.177979,-28.286743,0.21513367,-0.10032654,0.74490356,-0.87392366,0.22877653,-0.49351692
-27.212524,-26.177979,-28.286743,0.21513367,-0.10032654,0.74490356,-0.87392366,0.22877653,-0.49351692
-27.212524,-26.177979,-28.286743,0.21513367,-0.10032654,0.74490356,-0.87392366,0.22877653,-0.49351692
-27.212524,-26.177979,-28.286743,0.21513367,-0.10032654,0.74490356,-0.87392366,0.22877653,-0.49351692
-27.212524,-26.177979,-28.286743,0.21513367,-0.10032654,0.74490356,-0.87392366,0.22877653,-0.49351692
-27.212524,-26.177979,-28.286743,0.21513367,-0.10032654,0.74490356,-0.87392366,0.22877653,-0.49351692
-27.212524,-26.177979,-28.286743,0.21513367,-0.10032654,0.74490356,-0.87392366,0.22877653,-0.49351692
-27.212524,-26.177979,-28.286743,0.21513367,-0.10032654,0.74490356,-0.87392366,0.22877653,-0.49351692
-27.212524,-26.177979,-28.286743,0.21513367,-0.10032654,0.74490356,-0.87392366,0.22877653,-0.49351692
-27.212524,-26.177979,-28.286743,0.21513367,-0.10032654,0.74490356,-0.87392366,0.22877653,-0.49351692
-27.212524,-26.177979,-28.286743,0.21513367,-0.10032654,0.74490356,-0.87392366,0.22877653,-0.49351692
-27.212524,-26.177979,-28.286743,0.21513367,-0.10032654,0.74490356,-0.87392366,0.22877653,-0.49351692
-27.212524,-26.177979,-28.286743,0.21513367,-0.10032654,0.74490356,-0.87392366,0.22877653,-0.49351692
-29.953003,-24.984741,-28.045654,0.058563232,0.4315338,0.70233154,-0.57571447,0.33423075,0.34361553
-29.953003,-24.984741,-28.045654,0.058563232,0.4315338,0.70233154,-0.57571447,0.33423075,0.34361553
-29.953003,-24.984741,-28.045654,0.058563232,0.4315338,0.70233154,-0.57571447,0.33423075,0.34361553
-29.953003,-24.984741,-28.045654,0.058563232,0.4315338,0.70233154,-0.57571447,0.33423075,0.34361553
-29.953003,-24.984741,-28.045654,0.058563232,0.4315338,0.70233154,-0.57571447,0.33423075,0.34361553
-29.953003,-24.984741,-28.045654,0.058563232,0.4315338,0.70233154,-0.57571447,0.33423075,0.34361553
-29.953003,-24.984741,-28.045654,0.058563232,0.4315338,0.70233154,-0.57571447,0.33423075,0.34361553
-29.953003,-24.984741,-28.045654,0.058563232,0.4315338,0.70233154,-0.57571447,0.33423075,0.34361553
-29.953003,-24.984741,-28.045654,0.058563232,0.4315338,0.70233154,-0.57571447,0.33423075,0.34361553
-29.953003,-24.984741,-28.045654,0.058563232,0.4315338,0.70233154,-0.57571447,0.33423075,0.34361553
-29.953003,-24.984741,-28.045654,0.058563232,0.4315338,0.70233154,-0.57571447,0.33423075,0.34361553
-29.953003,-24.984741,-28.045654,0.058563232,0.4315338,0.70233154,-0.57571447,0.33423075,0.34361553
-29.953003,-24.984741,-28.045654,0.058563232,0.4315338,0.70233154,-0.57571447,0.33423075,0.34361553
-29.953003,-24.984741,-28.045654,0.058563232,0.4315338,0.70233154,-0.57571447,0.33423075,0.34361553
-29.953003,-24.984741,-28.045654,0.058563232,0.4315338,0.70233154,-0.57571447,0.33423075,0.34361553
-29.953003,-24.984741,-28.045654,0.058563232,0.4315338,0.70233154,-0.57571447,0.33423075,0.34361553
-32.80182,-20.637512,-28.689575,0.058563232,0.4315338,0.70233154,-0.57571447,0.33423075,0.34361553
-32.80182,-20.637512,-28.689575,0.058563232,0.4315338,0.70233154,-0.57571447,0.33423075,0.34361553
-32.80182,-20.637512,-28.689575,0.058563232,0.4315338,0.70233154,-0.57571447,0.33423075,0.34361553
-32.80182,-20.637512,-28.689575,0.058563232,0.4315338,0.70233154,-0.57571447,0.33423075,0.34361553
-32.80182,-20.637512,-28.689575,0.058563232,0.4315338,0.70233154,-0.57571447,0.33423075,0.34361553
-32.80182,-20.637512,-28.689575,0.058563232,0.4315338,0.70233154,-0.57571447,0.33423075,0.34361553
-32.80182,-20.637512,-28.689575,0.058563232,0.4315338,0.70233154,-0.57571447,0.33423075,0.34361553
-32.80182,-20.637512,-28.689575,0.058563232,0.4315338,0.70233154,-0.57571447,0.33423075,0.34361553
-32.80182,-20.637512,-28.689575,0.058563232,0.4315338,0.70233154,-0.57571447,0.33423075,0.34361553
-32.80182,-20.637512,-28.689575,0.058563232,0.4315338,0.70233154,-0.57571447,0.33423075,0.34361553
-32.80182,-20.637512,-28.689575,0.058563232,0.4315338,0.70233154,-0.57571447,0.33423075,0.34361553
-32.80182,-20.637512,-28.689575,0.058563232,0.4315338,0.70233154,-0.57571447,0.33423075,0.34361553
-32.80182,-20.637512,-28.689575,0.058563232,0.4315338,0.70233154,-0.57571447,0.33423075,0.34361553
-32.80182,-20.637512,-28.689575,0.058563232,0.4315338,0.70233154,-0.57571447,0.33423075,0.34361553
-32.80182,-20.637512,-28.689575,0.058563232,0.4315338,0.70233154,-0.57571447,0.33423075,0.34361553
-32.80182,-20.637512,-28.689575,0.058563232,0.4315338,0.70233154,-0.57571447,0.33423075,0.34361553
-32.80182,-20.637512,-28.689575,0.058563232,0.4315338,0.70233154,-0.57571447,0.33423075,0.34361553
-32.80182,-20.637512,-28.689575,0.058563232,0.4315338,0.70233154,-0.57571447,0.33423075,0.34361553
-32.80182,-20.637512,-28.689575,0.058563232,0.4315338,0.70233154,-0.57571447,0.33423075,0.34361553
-32.80182,-20.637512,-28.689575,0.056243896,0.18873596,0.7635956,-0.7704553,0.07703382,0.015921593
-33.82263,-15.122986,-30.23529,0.056243896,0.18873596,0.7635956,-0.7704553,0.07703382,0.015921593
-33.82263,-15.122986,-30.23529,0.056243896,0.18873596,0.7635956,-0.7704553,0.07703382,0.015921593
-33.82263,-15.122986,-30.23529,0.056243896,0.18873596,0.7635956,-0.7704553,0.07703382,0.015921593
-33.82263,-15.122986,-30.23529,0.056243896,0.18873596,0.7635956,-0.7704553,0.07703382,0.015921593
-33.82263,-15.122986,-30.23529,0.056243896,0.18873596,0.7635956,-0.7704553,0.07703382,0.015921593
-33.82263,-15.122986,-30.23529,0.056243896,0.18873596,0.7635956,-0.7704553,0.07703382,0.015921593
-33.82263,-15.122986,-30.23529,0.056243896,0.18873596,0.7635956,-0.7704553,0.07703382,0.015921593
-33.82263,-15.122986,-30.23529,0.056243896,0.18873596,0.7635956,-0.7704553,0.07703382,0.015921593
-33.82263,-15.122986,-30.23529,0.056243896,0.18873596,0.7635956,-0.7704553,0.07703382,0.015921593
-33.82263,-15.122986,-30.23529,0.056243896,0.18873596,0.7635956,-0.7704553,0.07703382,0.015921593
-33.82263,-15.122986,-30.23529,0.056243896,0.18873596,0.7635956,-0.7704553,0.07703382,0.015921593
-33.82263,-15.122986,-30.23529,0.056243896,0.18873596,0.7635956,-0.7704553,0.07703382,0.015921593
-33.82263,-15.122986,-30.23529,0.056243896,0.18873596,0.7635956,-0.7704553,0.07703382,0.015921593
-33.82263,-15.122986,-30.23529,0.056243896,0.18873596,0.7635956,-0.7704553,0.07703382,0.015921593
-33.82263,-15.122986,-30.23529,0.056243896,0.18873596,0.7635956,-0.7704553,0.07703382,0.015921593
-33.82263,-15.122986,-30.23529,-0.2164154,0.1427002,0.3814392,-0.21919087,-0.109591134,0.59061337
-33.82263,-15.122986,-30.23529,-0.2164154,0.1427002,0.3814392,-0.21919087,-0.109591134,0.59061337
-33.82263,-15.122986,-30.23529,-0.2164154,0.1427002,0.3814392,-0.21919087,-0.109591134,0.59061337
-33.82263,-15.122986,-30.23529,-0.2164154,0.1427002,0.3814392,-0.21919087,-0.109591134,0.59061337
-33.82263,-15.122986,-30.23529,-0.2164154,0.1427002,0.3814392,-0.21919087,-0.109591134,0.59061337
-33.82263,-15.122986,-30.23529,-0.2164154,0.1427002,0.3814392,-0.21919087,-0.109591134,0.59061337
-33.82263,-15.122986,-30.23529,-0.2164154,0.1427002,0.3814392,-0.21919087,-0.109591134,0.59061337
-33.82263,-15.122986,-30.23529,-0.2164154,0.1427002,0.3814392,-0.21919087,-0.109591134,0.59061337
-33.82263,-15.122986,-30.23529,-0.2164154,0.1427002,0.3814392,-0.21919087,-0.109591134,0.59061337
-35.650635,-13.285828,-30.168152,-0.2164154,0.1427002,0.3814392,-0.21919087,-0.109591134,0.59061337
-35.650635,-13.285828,-30.168152,-0.2164154,0.1427002,0.3814392,-0.21919087,-0.109591134,0.59061337
-35.650635,-13.285828,-30.168152,-0.2164154,0.1427002,0.3814392,-0.21919087,-0.109591134,0.59061337
-35.650635,-13.285828,-30.168152,-0.2164154,0.1427002,0.3814392,-0.21919087,-0.109591134,0.59061337
-35.650635,-13.285828,-30.168152,-0.2164154,0.1427002,0.3814392,-0.21919087,-0.109591134,0.59061337
-35.650635,-13.285828,-30.168152,-0.2164154,0.1427002,0.3814392,-0.21919087,-0.109591134,0.59061337
-35.650635,-13.285828,-30.168152,-0.2164154,0.1427002,0.3814392,-0.21919087,-0.109591134,0.59061337
-35.650635,-13.285828,-30.168152,-0.2164154,0.1427002,0.3814392,-0.21919087,-0.109591134,0.59061337
-35.650635,-13.285828,-30.168152,-0.2164154,0.1427002,0.3814392,-0.21919087,-0.109591134,0.59061337
-35.650635,-13.285828,-30.168152,-0.2164154,0.1427002,0.3814392,-0.21919087,-0.109591134,0.59061337
-35.650635,-13.285828,-30.168152,-0.2164154,0.1427002,0.3814392,-0.21919087,-0.109591134,0.59061337
-35.650635,-13.285828,-30.168152,-0.2164154,0.1427002,0.3814392,-0.21919087,-0.109591134,0.59061337
-35.650635,-13.285828,-30.168152,-0.2164154,0.1427002,0.3814392,-0.21919087,-0.109591134,0.59061337
-35.650635,-13.285828,-30.168152,-0.2164154,0.1427002,0.3814392,-0.21919087,-0.109591134,0.59061337
-35.650635,-13.285828,-30.168152,0.5752106,-0.291687,0.5143585,-0.2182981,-0.14623332,-0.17442513
-35.650635,-13.285828,-30.168152,0.5752106,-0.291687,0.5143585,-0.2182981,-0.14623332,-0.17442513
-35.650635,-13.285828,-30.168152,0.5752106,-0.291687,0.5143585,-0.2182981,-0.14623332,-0.17442513
-36.45172,-12.408447,-28.945923,0.5752106,-0.291687,0.5143585,-0.2182981,-0.14623332,-0.17442513
-36.45172,-12.408447,-28.945923,0.5752106,-0.291687,0.5143585,-0.2182981,-0.14623332,-0.17442513
-36.45172,-12.408447,-28.945923,0.5752106,-0.291687,0.5143585,-0.2182981,-0.14623332,-0.17442513
-36.45172,-12.408447,-28.945923,0.5752106,-0.291687,0.5143585,-0.2182981,-0.14623332,-0.17442513
-36.45172,-12.408447,-28.945923,0.5752106,-0.291687,0.5143585,-0.2182981,-0.14623332,-0.17442513
-36.45172,-12.408447,-28.945923,0.5752106,-0.291687,0.5143585,-0.2182981,-0.14623332,-0.17442513
-36.45172,-12.408447,-28.945923,0.5752106,-0.291687,0.5143585,-0.2182981,-0.14623332,-0.17442513
-36.45172,-12.408447,-28.945923,0.5752106,-0.291687,0.5143585,-0.2182981,-0.14623332,-0.17442513
-36.45172,-12.408447,-28.945923,0.5752106,-0.291687,0.5143585,-0.2182981,-0.14623332,-0.17442513
-36.45172,-12.408447,-28.945923,0.5752106,-0.291687,0.5143585,-0.2182981,-0.14623332,-0.17442513
-36.45172,-12.408447,-28.945923,0.5752106,-0.291687,0.5143585,-0.2182981,-0.14623332,-0.17442513
-36.45172,-12.408447,-28.945923,0.5752106,-0.291687,0.5143585,-0.2182981,-0.14623332,-0.17442513
-36.45172,-12.408447,-28.945923,0.5752106,-0.291687,0.5143585,-0.2182981,-0.14623332,-0.17442513
-36.45172,-12.408447,-28.945923,0.059387207,0.23265076,0.45895386,-1.4404907,-0.45947933,-1.2112818
-36.45172,-12.408447,-28.945923,0.059387207,0.23265076,0.45895386,-1.4404907,-0.45947933,-1.2112818
-36.45172,-12.408447,-28.945923,0.059387207,0.23265076,0.45895386,-1.4404907,-0.45947933,-1.2112818
-36.45172,-12.408447,-28.945923,0.059387207,0.23265076,0.45895386,-1.4404907,-0.45947933,-1.2112818
-36.45172,-12.408447,-28.945923,0.059387207,0.23265076,0.45895386,-1.4404907,-0.45947933,-1.2112818
-36.45172,-12.408447,-28.945923,0.059387207,0.23265076,0.45895386,-1.4404907,-0.45947933,-1.2112818
-36.45172,-12.408447,-28.945923,0.059387207,0.23265076,0.45895386,-1.4404907,-0.45947933,-1.2112818
-36.45172,-12.408447,-28.945923,0.059387207,0.23265076,0.45895386,-1.4404907,-0.45947933,-1.2112818
-36.45172,-12.408447,-28.945923,0.059387207,0.23265076,0.45895386,-1.4404907,-0.45947933,-1.2112818
-36.45172,-12.408447,-28.945923,0.059387207,0.23265076,0.45895386,-1.4404907,-0.45947933,-1.2112818
-36.45172,-12.408447,-28.945923,0.059387207,0.23265076,0.45895386,-1.4404907,-0.45947933,-1.2112818
-36.45172,-12.408447,-28.945923,0.059387207,0.23265076,0.45895386,-1.4404907,-0.45947933,-1.2112818
-36.45172,-12.408447,-28.945923,0.059387207,0.23265076,0.45895386,-1.4404907,-0.45947933,-1.2112818
-36.45172,-12.408447,-28.945923,0.059387207,0.23265076,0.45895386,-1.4404907,-0.45947933,-1.2112818
-37.083435,-10.388184,-28.379822,0.059387207,0.23265076,0.45895386,-1.4404907,-0.45947933,-1.2112818
-37.083435,-10.388184,-28.379822,0.059387207,0.23265076,0.45895386,-1.4404907,-0.45947933,-1.2112818
-37.083435,-10.388184,-28.379822,0.059387207,0.23265076,0.45895386,-1.4404907,-0.45947933,-1.2112818
-37.083435,-10.388184,-28.379822,0.059387207,0.23265076,0.45895386,-1.4404907,-0.45947933,-1.2112818
-37.083435,-10.388184,-28.379822,0.059387207,0.23265076,0.45895386,-1.4404907,-0.45947933,-1.2112818
-37.083435,-10.388184,-28.379822,0.2956543,-0.2350769,1.0725708,-1.7614281,-0.8505329,1.8096237
-37.083435,-10.388184,-28.379822,0.2956543,-0.2350769,1.0725708,-1.7614281,-0.8505329,1.8096237
-37.083435,-10.388184,-28.379822,0.2956543,-0.2350769,1.0725708,-1.7614281,-0.8505329,1.8096237
-37.083435,-10.388184,-28.379822,0.2956543,-0.2350769,1.0725708,-1.7614281,-0.8505329,1.8096237
-37.083435,-10.388184,-28.379822,0.2956543,-0.2350769,1.0725708,-1.7614281,-0.8505329,1.8096237
-37.083435,-10.388184,-28.379822,0.2956543,-0.2350769,1.0725708,-1.7614281,-0.8505329,1.8096237
-37.083435,-10.388184,-28.379822,0.2956543,-0.2350769,1.0725708,-1.7614281,-0.8505329,1.8096237
-37.083435,-10.388184,-28.379822,0.2956543,-0.2350769,1.0725708,-1.7614281,-0.8505329,1.8096237
-37.083435,-10.388184,-28.379822,0.2956543,-0.2350769,1.0725708,-1.7614281,-0.8505329,1.8096237
-37.083435,-10.388184,-28.379822,0.2956543,-0.2350769,1.0725708,-1.7614281,-0.8505329,1.8096237
-37.083435,-10.388184,-28.379822,0.2956543,-0.2350769,1.0725708,-1.7614281,-0.8505329,1.8096237
-37.083435,-10.388184,-28.379822,0.2956543,-0.2350769,1.0725708,-1.7614281,-0.8505329,1.8096237
-37.083435,-10.388184,-28.379822,0.2956543,-0.2350769,1.0725708,-1.7614281,-0.8505329,1.8096237
-38.430786,-5.6640625,-27.807617,0.2956543,-0.2350769,1.0725708,-1.7614281,-0.8505329,1.8096237
-38.430786,-5.6640625,-27.807617,0.2956543,-0.2350769,1.0725708,-1.7614281,-0.8505329,1.8096237
-38.430786,-5.6640625,-27.807617,0.2956543,-0.2350769,1.0725708,-1.7614281,-0.8505329,1.8096237
-38.430786,-5.6640625,-27.807617,0.2956543,-0.2350769,1.0725708,-1.7614281,-0.8505329,1.8096237
-38.430786,-5.6640625,-27.807617,0.2956543,-0.2350769,1.0725708,-1.7614281,-0.8505329,1.8096237
-38.430786,-5.6640625,-27.807617,0.2956543,-0.2350769,1.0725708,-1.7614281,-0.8505329,1.8096237
-38.430786,-5.6640625,-27.807617,-0.41189575,0.39753723,0.49032593,-0.4016944,-0.9581575,-1.9570389
-38.430786,-5.6640625,-27.807617,-0.41189575,0.39753723,0.49032593,-0.4016944,-0.9581575,-1.9570389
-38.430786,-5.6640625,-27.807617,-0.41189575,0.39753723,0.49032593,-0.4016944,-0.9581575,-1.9570389
-38.430786,-5.6640625,-27.807617,-0.41189575,0.39753723,0.49032593,-0.4016944,-0.9581575,-1.9570389
-38.430786,-5.6640625,-27.807617,-0.41189575,0.39753723,0.49032593,-0.4016944,-0.9581575,-1.9570389
-38.430786,-5.6640625,-27.807617,-0.41189575,0.39753723,0.49032593,-0.4016944,-0.9581575,-1.9570389
-38.430786,-5.6640625,-27.807617,-0.41189575,0.39753723,0.49032593,-0.4016944,-0.9581575,-1.9570389
-38.430786,-5.6640625,-27.807617,-0.41189575,0.39753723,0.49032593,-0.4016944,-0.9581575,-1.9570389
-38.430786,-5.6640625,-27.807617,-0.41189575,0.39753723,0.49032593,-0.4016944,-0.9581575,-1.9570389
-38.430786,-5.6640625,-27.807617,-0.41189575,0.39753723,0.49032593,-0.4016944,-0.9581575,-1.9570389
-38.430786,-5.6640625,-27.807617,-0.41189575,0.39753723,0.49032593,-0.4016944,-0.9581575,-1.9570389
-38.430786,-5.6640625,-27.807617,-0.41189575,0.39753723,0.49032593,-0.4016944,-0.9581575,-1.9570389
-38.430786,-5.6640625,-27.807617,-0.41189575,0.39753723,0.49032593,-0.4016944,-0.9581575,-1.9570389
-38.876343,2.9006958,-27.944946,-0.41189575,0.39753723,0.49032593,-0.4016944,-0.9581575,-1.9570389
-38.876343,2.9006958,-27.944946,-0.41189575,0.39753723,0.49032593,-0.4016944,-0.9581575,-1.9570389
-38.876343,2.9006958,-27.944946,-0.41189575,0.39753723,0.49032593,-0.4016944,-0.9581575,-1.9570389
-38.876343,2.9006958,-27.944946,-0.41189575,0.39753723,0.49032593,-0.4016944,-0.9581575,-1.9570389
-38.876343,2.9006958,-27.944946,-0.41189575,0.39753723,0.49032593,-0.4016944,-0.9581575,-1.9570389
-38.876343,2.9006958,-27.944946,-0.41189575,0.39753723,0.49032593,-0.4016944,-0.9581575,-1.9570389
-38.876343,2.9006958,-27.944946,0.16860962,-0.5607147,1.2289886,-1.8311338,-0.9138013,1.7347155
-38.876343,2.9006958,-27.944946,0.16860962,-0.5607147,1.2289886,-1.8311338,-0.9138013,1.7347155
-38.876343,2.9006958,-27.944946,0.16860962,-0.5607147,1.2289886,-1.8311338,-0.9138013,1.7347155
-38.876343,2.9006958,-27.944946,0.16860962,-0.5607147,1.2289886,-1.8311338,-0.9138013,1.7347155
-38.876343,2.9006958,-27.944946,0.16860962,-0.5607147,1.2289886,-1.8311338,-0.9138013,1.7347155
-38.876343,2.9006958,-27.944946,0.16860962,-0.5607147,1.2289886,-1.8311338,-0.9138013,1.7347155
-38.876343,2.9006958,-27.944946,0.16860962,-0.5607147,1.2289886,-1.8311338,-0.9138013,1.7347155
-38.876343,2.9006958,-27.944946,0.16860962,-0.5607147,1.2289886,-1.8311338,-0.9138013,1.7347155
-38.876343,2.9006958,-27.944946,0.16860962,-0.5607147,1.2289886,-1.8311338,-0.9138013,1.7347155
-38.876343,2.9006958,-27.944946,0.16860962,-0.5607147,1.2289886,-1.8311338,-0.9138013,1.7347155
-38.876343,2.9006958,-27.944946,0.16860962,-0.5607147,1.2289886,-1.8311338,-0.9138013,1.7347155
-38.876343,2.9006958,-27.944946,0.16860962,-0.5607147,1.2289886,-1.8311338,-0.9138013,1.7347155
-38.876343,2.9006958,-27.944946,0.16860962,-0.5607147,1.2289886,-1.8311338,-0.9138013,1.7347155
-38.876343,2.9006958,-27.944946,0.16860962,-0.5607147,1.2289886,-1.8311338,-0.9138013,1.7347155
-38.876343,2.9006958,-27.944946,0.16860962,-0.5607147,1.2289886,-1.8311338,-0.9138013,1.7347155
-36.424255,14.360046,-26.539612,0.16860962,-0.5607147,1.2289886,-1.8311338,-0.9138013,1.7347155
-36.424255,14.360046,-26.539612,0.16860962,-0.5607147,1.2289886,-1.8311338,-0.9138013,1.7347155
-36.424255,14.360046,-26.539612,0.16860962,-0.5607147,1.2289886,-1.8311338,-0.9138013,1.7347155
-36.424255,14.360046,-26.539612,0.16860962,-0.5607147,1.2289886,-1.8311338,-0.9138013,1.7347155
-36.424255,14.360046,-26.539612,-0.31088257,0.12541199,1.0342712,-1.0111752,0.0074563175,-1.2922688
-36.424255,14.360046,-26.539612,-0.31088257,0.12541199,1.0342712,-1.0111752,0.0074563175,-1.2922688
-36.424255,14.360046,-26.539612,-0.31088257,0.12541199,1.0342712,-1.0111752,0.0074563175,-1.2922688
-36.424255,14.360046,-26.539612,-0.31088257,0.12541199,1.0342712,-1.0111752,0.0074563175,-1.2922688
-36.424255,14.360046,-26.539612,-0.31088257,0.12541199,1.0342712,-1.0111752,0.0074563175,-1.2922688
-36.424255,14.360046,-26.539612,-0.31088257,0.12541199,1.0342712,-1.0111752,0.0074563175,-1.2922688
-36.424255,14.360046,-26.539612,-0.31088257,0.12541199,1.0342712,-1.0111752,0.0074563175,-1.2922688
-36.424255,14.360046,-26.539612,-0.31088257,0.12541199,1.0342712,-1.0111752,0.0074563175,-1.2922688
-36.424255,14.360046,-26.539612,-0.31088257,0.12541199,1.0342712,-1.0111752,0.0074563175,-1.2922688
-36.424255,14.360046,-26.539612,-0.31088257,0.12541199,1.0342712,-1.0111752,0.0074563175,-1.2922688
-36.424255,14.360046,-26.539612,-0.31088257,0.12541199,1.0342712,-1.0111752,0.0074563175,-1.2922688
-36.424255,14.360046,-26.539612,-0.31088257,0.12541199,1.0342712,-1.0111752,0.0074563175,-1.2922688
-36.424255,14.360046,-26.539612,-0.31088257,0.12541199,1.0342712,-1.0111752,0.0074563175,-1.2922688
-36.424255,14.360046,-26.539612,-0.31088257,0.12541199,1.0342712,-1.0111752,0.0074563175,-1.2922688
-36.424255,14.360046,-26.539612,-0.31088257,0.12541199,1.0342712,-1.0111752,0.0074563175,-1.2922688
-36.424255,14.360046,-26.539612,-0.31088257,0.12541199,1.0342712,-1.0111752,0.0074563175,-1.2922688
-36.424255,14.360046,-26.539612,-0.31088257,0.12541199,1.0342712,-1.0111752,0.0074563175,-1.2922688
-36.424255,14.360046,-26.539612,-0.31088257,0.12541199,1.0342712,-1.0111752,0.0074563175,-1.2922688
-32.23114,19.320679,-26.976013,-0.31088257,0.12541199,1.0342712,-1.0111752,0.0074563175,-1.2922688
-32.23114,19.320679,-26.976013,-0.31088257,0.12541199,1.0342712,-1.0111752,0.0074563175,-1.2922688
-32.23114,19.320679,-26.976013,0.1937561,-0.032302856,1.1285858,-1.8097874,-0.5614232,1.7686253
-32.23114,19.320679,-26.976013,0.1937561,-0.032302856,1.1285858,-1.8097874,-0.5614232,1.7686253
-32.23114,19.320679,-26.976013,0.1937561,-0.032302856,1.1285858,-1.8097874,-0.5614232,1.7686253
-32.23114,19.320679,-26.976013,0.1937561,-0.032302856,1.1285858,-1.8097874,-0.5614232,1.7686253
-32.23114,19.320679,-26.976013,0.1937561,-0.032302856,1.1285858,-1.8097874,-0.5614232,1.7686253
-32.23114,19.320679,-26.976013,0.1937561,-0.032302856,1.1285858,-1.8097874,-0.5614232,1.7686253
-32.23114,19.320679,-26.976013,0.1937561,-0.032302856,1.1285858,-1.8097874,-0.5614232,1.7686253
-32.23114,19.320679,-26.976013,0.1937561,-0.032302856,1.1285858,-1.8097874,-0.5614232,1.7686253
-32.23114,19.320679,-26.976013,0.1937561,-0.032302856,1.1285858,-1.8097874,-0.5614232,1.7686253
-32.23114,19.320679,-26.976013,0.1937561,-0.032302856,1.1285858,-1.8097874,-0.5614232,1.7686253
-32.23114,19.320679,-26.976013,0.1937561,-0.032302856,1.1285858,-1.8097874,-0.5614232,1.7686253
-32.23114,19.320679,-26.976013,0.1937561,-0.032302856,1.1285858,-1.8097874,-0.5614232,1.7686253
-32.23114,19.320679,-26.976013,0.1937561,-0.032302856,1.1285858,-1.8097874,-0.5614232,1.7686253
-32.23114,19.320679,-26.976013,0.1937561,-0.032302856,1.1285858,-1.8097874,-0.5614232,1.7686253
-32.23114,19.320679,-26.976013,0.1937561,-0.032302856,1.1285858,-1.8097874,-0.5614232,1.7686253
-32.23114,19.320679,-26.976013,0.1937561,-0.032302856,1.1285858,-1.8097874,-0.5614232,1.7686253
-28.030396,22.763062,-27.62146,0.1937561,-0.032302856,1.1285858,-1.8097874,-0.5614232,1.7686253
-28.030396,22.763062,-27.62146,0.1937561,-0.032302856,1.1285858,-1.8097874,-0.5614232,1.7686253
-28.030396,22.763062,-27.62146,-0.12628174,0.21730042,0.81640625,-1.3593539,-0.20343143,1.651124
-28.030396,22.763062,-27.62146,-0.12628174,0.21730042,0.81640625,-1.3593539,-0.20343143,1.651124
-28.030396,22.763062,-27.62146,-0.12628174,0.21730042,0.81640625,-1.3593539,-0.20343143,1.651124
-28.030396,22.763062,-27.62146,-0.12628174,0.21730042,0.81640625,-1.3593539,-0.20343143,1.651124
-28.030396,22.763062,-27.62146,-0.12628174,0.21730042,0.81640625,-1.3593539,-0.20343143,1.651124
-28.030396,22.763062,-27.62146,-0.12628174,0.21730042,0.81640625,-1.3593539,-0.20343143,1.651124
-28.030396,22.763062,-27.62146,-0.12628174,0.21730042,0.81640625,-1.3593539,-0.20343143,1.651124
-28.030396,22.763062,-27.62146,-0.12628174,0.21730042,0.81640625,-1.3593539,-0.20343143,1.651124
-28.030396,22.763062,-27.62146,-0.12628174,0.21730042,0.81640625,-1.3593539,-0.20343143,1.651124
-28.030396,22.763062,-27.62146,-0.12628174,0.21730042,0.81640625,-1.3593539,-0.20343143,1.651124
-28.030396,22.763062,-27.62146,-0.12628174,0.21730042,0.81640625,-1.3593539,-0.20343143,1.651124
-28.030396,22.763062,-27.62146,-0.12628174,0.21730042,0.81640625,-1.3593539,-0.20343143,1.651124
-28.030396,22.763062,-27.62146,-0.12628174,0.21730042,0.81640625,-1.3593539,-0.20343143,1.651124
-28.030396,22.763062,-27.62146,-0.12628174,0.21730042,0.81640625,-1.3593539,-0.20343143,1.651124
-28.030396,22.763062,-27.62146,-0.12628174,0.21730042,0.81640625,-1.3593539,-0.20343143,1.651124
-24.562073,24.168396,-28.608704,-0.12628174,0.21730042,0.81640625,-1.3593539,-0.20343143,1.651124
-24.562073,24.168396,-28.608704,-0.12628174,0.21730042,0.81640625,-1.3593539,-0.20343143,1.651124
-24.562073,24.168396,-28.608704,-0.12628174,0.21730042,0.81640625,-1.3593539,-0.20343143,1.651124
-24.562073,24.168396,-28.608704,-0.12628174,0.21730042,0.81640625,-1.3593539,-0.20343143,1.651124
-24.562073,24.168396,-28.608704,0.1386261,-0.039154053,0.45498657,-0.7347038,-0.72199416,-1.507164
-24.562073,24.168396,-28.608704,0.1386261,-0.039154053,0.45498657,-0.7347038,-0.72199416,-1.507164
-24.562073,24.168396,-28.608704,0.1386261,-0.039154053,0.45498657,-0.7347038,-0.72199416,-1.507164
-24.562073,24.168396,-28.608704,0.1386261,-0.039154053,0.45498657,-0.7347038,-0.72199416,-1.507164
-24.562073,24.168396,-28.608704,0.1386261,-0.039154053,0.45498657,-0.7347038,-0.72199416,-1.507164
-24.562073,24.168396,-28.608704,0.1386261,-0.039154053,0.45498657,-0.7347038,-0.72199416,-1.507164
-24.562073,24.168396,-28.608704,0.1386261,-0.039154053,0.45498657,-0.7347038,-0.72199416,-1.507164
-24.562073,24.168396,-28.608704,0.1386261,-0.039154053,0.45498657,-0.7347038,-0.72199416,-1.507164
-24.562073,24.168396,-28.608704,0.1386261,-0.039154053,0.45498657,-0.7347038,-0.72199416,-1.507164
-24.562073,24.168396,-28.608704,0.1386261,-0.039154053,0.45498657,-0.7347038,-0.72199416,-1.507164
-24.562073,24.168396,-28.608704,0.1386261,-0.039154053,0.45498657,-0.7347038,-0.72199416,-1.507164
-24.562073,24.168396,-28.608704,0.1386261,-0.039154053,0.45498657,-0.7347038,-0.72199416,-1.507164
-24.562073,24.168396,-28.608704,0.1386261,-0.039154053,0.45498657,-0.7347038,-0.72199416,-1.507164
-24.562073,24.168396,-28.608704,0.1386261,-0.039154053,0.45498657,-0.7347038,-0.72199416,-1.507164
-24.562073,24.168396,-28.608704,0.1386261,-0.039154053,0.45498657,-0.7347038,-0.72199416,-1.507164
-24.562073,24.168396,-28.608704,0.1386261,-0.039154053,0.45498657,-0.7347038,-0.72199416,-1.507164
-21.347046,24.700928,-28.814697,0.1386261,-0.039154053,0.45498657,-0.7347038,-0.72199416,-1.507164
-21.347046,24.700928,-28.814697,0.1386261,-0.039154053,0.45498657,-0.7347038,-0.72199416,-1.507164
-21.347046,24.700928,-28.814697,0.1386261,-0.039154053,0.45498657,-0.7347038,-0.72199416,-1.507164
-21.347046,24.700928,-28.814697,0.03715515,-0.14996338,0.39759827,-0.78903794,0.04405284,1.4744282
-21.347046,24.700928,-28.814697,0.03715515,-0.14996338,0.39759827,-0.78903794,0.04405284,1.4744282
-21.347046,24.700928,-28.814697,0.03715515,-0.14996338,0.39759827,-0.78903794,0.04405284,1.4744282
-21.347046,24.700928,-28.814697,0.03715515,-0.14996338,0.39759827,-0.78903794,0.04405284,1.4744282
-21.347046,24.700928,-28.814697,0.03715515,-0.14996338,0.39759827,-0.78903794,0.04405284,1.4744282
-21.347046,24.700928,-28.814697,0.03715515,-0.14996338,0.39759827,-0.78903794,0.04405284,1.4744282
-21.347046,24.700928,-28.814697,0.03715515,-0.14996338,0.39759827,-0.78903794,0.04405284,1.4744282
-21.347046,24.700928,-28.814697,0.03715515,-0.14996338,0.39759827,-0.78903794,0.04405284,1.4744282
-21.347046,24.700928,-28.814697,0.03715515,-0.14996338,0.39759827,-0.78903794,0.04405284,1.4744282
-21.347046,24.700928,-28.814697,0.03715515,-0.14996338,0.39759827,-0.78903794,0.04405284,1.4744282
-21.347046,24.700928,-28.814697,0.03715515,-0.14996338,0.39759827,-0.78903794,0.04405284,1.4744282
-21.347046,24.700928,-28.814697,0.03715515,-0.14996338,0.39759827,-0.78903794,0.04405284,1.4744282
-21.347046,24.700928,-28.814697,0.03715515,-0.14996338,0.39759827,-0.78903794,0.04405284,1.4744282
-21.347046,24.700928,-28.814697,0.03715515,-0.14996338,0.39759827,-0.78903794,0.04405284,1.4744282
-21.347046,24.700928,-28.814697,0.03715515,-0.14996338,0.39759827,-0.78903794,0.04405284,1.4744282
-21.347046,24.700928,-28.814697,0.03715515,-0.14996338,0.39759827,-0.78903794,0.04405284,1.4744282
-14.500427,25.813293,-28.225708,0.03715515,-0.14996338,0.39759827,-0.78903794,0.04405284,1.4744282
-14.500427,25.813293,-28.225708,0.03715515,-0.14996338,0.39759827,-0.78903794,0.04405284,1.4744282
-14.500427,25.813293,-28.225708,0.03715515,-0.14996338,0.39759827,-0.78903794,0.04405284,1.4744282
-14.500427,25.813293,-28.225708,0.2013855,0.22673035,0.8033905,-1.1742241,-0.26346987,-1.7659025
-14.500427,25.813293,-28.225708,0.2013855,0.22673035,0.8033905,-1.1742241,-0.26346987,-1.7659025
-14.500427,25.813293,-28.225708,0.2013855,0.22673035,0.8033905,-1.1742241,-0.26346987,-1.7659025
-14.500427,25.813293,-28.225708,0.2013855,0.22673035,0.8033905,-1.1742241,-0.26346987,-1.7659025
-14.500427,25.813293,-28.225708,0.2013855,0.22673035,0.8033905,-1.1742241,-0.26346987,-1.7659025
-14.500427,25.813293,-28.225708,0.2013855,0.22673035,0.8033905,-1.1742241,-0.26346987,-1.7659025
-14.500427,25.813293,-28.225708,0.2013855,0.22673035,0.8033905,-1.1742241,-0.26346987,-1.7659025
-14.500427,25.813293,-28.225708,0.2013855,0.22673035,0.8033905,-1.1742241,-0.26346987,-1.7659025
-14.500427,25.813293,-28.225708,0.2013855,0.22673035,0.8033905,-1.1742241,-0.26346987,-1.7659025
-14.500427,25.813293,-28.225708,0.2013855,0.22673035,0.8033905,-1.1742241,-0.26346987,-1.7659025
-14.500427,25.813293,-28.225708,0.2013855,0.22673035,0.8033905,-1.1742241,-0.26346987,-1.7659025
-14.500427,25.813293,-28.225708,0.2013855,0.22673035,0.8033905,-1.1742241,-0.26346987,-1.7659025
-14.500427,25.813293,-28.225708,0.2013855,0.22673035,0.8033905,-1.1742241,-0.26346987,-1.7659025
-14.500427,25.813293,-28.225708,0.2013855,0.22673035,0.8033905,-1.1742241,-0.26346987,-1.7659025
-14.500427,25.813293,-28.225708,0.2013855,0.22673035,0.8033905,-1.1742241,-0.26346987,-1.7659025
-14.500427,25.813293,-28.225708,0.2013855,0.22673035,0.8033905,-1.1742241,-0.26346987,-1.7659025
-14.500427,25.813293,-28.225708,0.2013855,0.22673035,0.8033905,-1.1742241,-0.26346987,-1.7659025
-14.500427,25.813293,-28.225708,0.2013855,0.22673035,0.8033905,-1.1742241,-0.26346987,-1.7659025
-7.623291,26.530457,-27.244568,0.2013855,0.22673035,0.8033905,-1.1742241,-0.26346987,-1.7659025
-7.623291,26.530457,-27.244568,0.2013855,0.22673035,0.8033905,-1.1742241,-0.26346987,-1.7659025
-7.623291,26.530457,-27.244568,0.036849976,0.06124878,0.7583771,-1.0126123,-0.46677822,1.1195679
-7.623291,26.530457,-27.244568,0.036849976,0.06124878,0.7583771,-1.0126123,-0.46677822,1.1195679
-7.623291,26.530457,-27.244568,0.036849976,0.06124878,0.7583771,-1.0126123,-0.46677822,1.1195679
-7.623291,26.530457,-27.244568,0.036849976,0.06124878,0.7583771,-1.0126123,-0.46677822,1.1195679
-7.623291,26.530457,-27.244568,0.036849976,0.06124878,0.7583771,-1.0126123,-0.46677822,1.1195679
-7.623291,26.530457,-27.244568,0.036849976,0.06124878,0.7583771,-1.0126123,-0.46677822,1.1195679
-7.623291,26.530457,-27.244568,0.036849976,0.06124878,0.7583771,-1.0126123,-0.46677822,1.1195679
-7.623291,26.530457,-27.244568,0.036849976,0.06124878,0.7583771,-1.0126123,-0.46677822,1.1195679
-7.623291,26.530457,-27.244568,0.036849976,0.06124878,0.7583771,-1.0126123,-0.46677822,1.1195679
-7.623291,26.530457,-27.244568,0.036849976,0.06124878,0.7583771,-1.0126123,-0.46677822,1.1195679
-7.623291,26.530457,-27.244568,0.036849976,0.06124878,0.7583771,-1.0126123,-0.46677822,1.1195679
-7.623291,26.530457,-27.244568,0.036849976,0.06124878,0.7583771,-1.0126123,-0.46677822,1.1195679
-7.623291,26.530457,-27.244568,0.036849976,0.06124878,0.7583771,-1.0126123,-0.46677822,1.1195679
-7.623291,26.530457,-27.244568,0.036849976,0.06124878,0.7583771,-1.0126123,-0.46677822,1.1195679
-7.623291,26.530457,-27.244568,0.036849976,0.06124878,0.7583771,-1.0126123,-0.46677822,1.1195679
-7.623291,26.530457,-27.244568,0.036849976,0.06124878,0.7583771,-1.0126123,-0.46677822,1.1195679
-7.623291,26.530457,-27.244568,0.036849976,0.06124878,0.7583771,-1.0126123,-0.46677822,1.1195679
-7.623291,26.530457,-27.244568,0.036849976,0.06124878,0.7583771,-1.0126123,-0.46677822,1.1195679
-7.623291,26.530457,-27.244568,0.036849976,0.06124878,0.7583771,-1.0126123,-0.46677822,1.1195679
-3.6331177,26.345825,-26.312256,-0.20631409,-0.090911865,0.31143188,-0.33123288,-0.2102581,-1.7570715
-3.6331177,26.345825,-26.312256,-0.20631409,-0.090911865,0.31143188,-0.33123288,-0.2102581,-1.7570715
-3.6331177,26.345825,-26.312256,-0.20631409,-0.090911865,0.31143188,-0.33123288,-0.2102581,-1.7570715
-3.6331177,26.345825,-26.312256,-0.20631409,-0.090911865,0.31143188,-0.33123288,-0.2102581,-1.7570715
-3.6331177,26.345825,-26.312256,-0.20631409,-0.090911865,0.31143188,-0.33123288,-0.2102581,-1.7570715
-3.6331177,26.345825,-26.312256,-0.20631409,-0.090911865,0.31143188,-0.33123288,-0.2102581,-1.7570715
-3.6331177,26.345825,-26.312256,-0.20631409,-0.090911865,0.31143188,-0.33123288,-0.2102581,-1.7570715
-3.6331177,26.345825,-26.312256,-0.20631409,-0.090911865,0.31143188,-0.33123288,-0.2102581,-1.7570715
-3.6331177,26.345825,-26.312256,-0.20631409,-0.090911865,0.31143188,-0.33123288,-0.2102581,-1.7570715
-3.6331177,26.345825,-26.312256,-0.20631409,-0.090911865,0.31143188,-0.33123288,-0.2102581,-1.7570715
-3.6331177,26.345825,-26.312256,-0.20631409,-0.090911865,0.31143188,-0.33123288,-0.2102581,-1.7570715
-3.6331177,26.345825,-26.312256,-0.20631409,-0.090911865,0.31143188,-0.33123288,-0.2102581,-1.7570715
-3.6331177,26.345825,-26.312256,-0.20631409,-0.090911865,0.31143188,-0.33123288,-0.2102581,-1.7570715
-3.6331177,26.345825,-26.312256,-0.20631409,-0.090911865,0.31143188,-0.33123288,-0.2102581,-1.7570715
-3.6331177,26.345825,-26.312256,-0.20631409,-0.090911865,0.31143188,-0.33123288,-0.2102581,-1.7570715
-3.6331177,26.345825,-26.312256,-0.20631409,-0.090911865,0.31143188,-0.33123288,-0.2102581,-1.7570715
-3.6331177,26.345825,-26.312256,-0.20631409,-0.090911865,0.31143188,-0.33123288,-0.2102581,-1.7570715
-3.6331177,26.345825,-26.312256,-0.20631409,-0.090911865,0.31143188,-0.33123288,-0.2102581,-1.7570715
-3.6331177,26.345825,-26.312256,-0.20631409,-0.090911865,0.31143188,-0.33123288,-0.2102581,-1.7570715
-3.6331177,26.345825,-26.312256,-0.20631409,-0.090911865,0.31143188,-0.33123288,-0.2102581,-1.7570715
-3.6331177,26.345825,-26.312256,-0.20631409,-0.090911865,0.31143188,-0.33123288,-0.2102581,-1.7570715
-1.0635376,25.946045,-25.572205,0.43519592,-0.29351807,0.7113342,-0.46468407,-0.623184,1.0268898
-1.0635376,25.946045,-25.572205,0.43519592,-0.29351807,0.7113342,-0.46468407,-0.623184,1.0268898
-1.0635376,25.946045,-25.572205,0.43519592,-0.29351807,0.7113342,-0.46468407,-0.623184,1.0268898
-1.0635376,25.946045,-25.572205,0.43519592,-0.29351807,0.7113342,-0.46468407,-0.623184,1.0268898
-1.0635376,25.946045,-25.572205,0.43519592,-0.29351807,0.7113342,-0.46468407,-0.623184,1.0268898
-1.0635376,25.946045,-25.572205,0.43519592,-0.29351807,0.7113342,-0.46468407,-0.623184,1.0268898
-1.0635376,25.946045,-25.572205,0.43519592,-0.29351807,0.7113342,-0.46468407,-0.623184,1.0268898
-1.0635376,25.946045,-25.572205,0.43519592,-0.29351807,0.7113342,-0.46468407,-0.623184,1.0268898
-1.0635376,25.946045,-25.572205,0.43519592,-0.29351807,0.7113342,-0.46468407,-0.623184,1.0268898
-1.0635376,25.946045,-25.572205,0.43519592,-0.29351807,0.7113342,-0.46468407,-0.623184,1.0268898
-1.0635376,25.946045,-25.572205,0.43519592,-0.29351807,0.7113342,-0.46468407,-0.623184,1.0268898
-1.0635376,25.946045,-25.572205,0.43519592,-0.29351807,0.7113342,-0.46468407,-0.623184,1.0268898
-1.0635376,25.946045,-25.572205,0.43519592,-0.29351807,0.7113342,-0.46468407,-0.623184,1.0268898
-1.0635376,25.946045,-25.572205,0.43519592,-0.29351807,0.7113342,-0.46468407,-0.623184,1.0268898
-1.0635376,25.946045,-25.572205,0.43519592,-0.29351807,0.7113342,-0.46468407,-0.623184,1.0268898
-1.0635376,25.946045,-25.572205,0.43519592,-0.29351807,0.7113342,-0.46468407,-0.623184,1.0268898
-1.0635376,25.946045,-25.572205,0.43519592,-0.29351807,0.7113342,-0.46468407,-0.623184,1.0268898
-1.0635376,25.946045,-25.572205,0.43519592,-0.29351807,0.7113342,-0.46468407,-0.623184,1.0268898
-1.0635376,25.946045,-25.572205,0.43519592,-0.29351807,0.7113342,-0.46468407,-0.623184,1.0268898
-1.0635376,25.946045,-25.572205,0.43519592,-0.29351807,0.7113342,-0.46468407,-0.623184,1.0268898
-1.0635376,25.946045,-25.572205,0.43519592,-0.29351807,0.7113342,-0.46468407,-0.623184,1.0268898
1.5350342,24.795532,-24.6109,-0.099975586,0.3163147,0.44898987,-1.0816913,-0.15299857,-0.7102823
1.5350342,24.795532,-24.6109,-0.099975586,0.3163147,0.44898987,-1.0816913,-0.15299857,-0.7102823
1.5350342,24.795532,-24.6109,-0.099975586,0.3163147,0.44898987,-1.0816913,-0.15299857,-0.7102823
1.5350342,24.795532,-24.6109,-0.099975586,0.3163147,0.44898987,-1.0816913,-0.15299857,-0.7102823
1.5350342,24.795532,-24.6109,-0.099975586,0.3163147,0.44898987,-1.0816913,-0.15299857,-0.7102823
1.5350342,24.795532,-24.6109,-0.099975586,0.3163147,0.44898987,-1.0816913,-0.15299857,-0.7102823
1.5350342,24.795532,-24.6109,-0.099975586,0.3163147,0.44898987,-1.0816913,-0.15299857,-0.7102823
1.5350342,24.795532,-24.6109,-0.099975586,0.3163147,0.44898987,-1.0816913,-0.15299857,-0.7102823
1.5350342,24.795532,-24.6109,-0.099975586,0.3163147,0.44898987,-1.0816913,-0.15299857,-0.7102823
1.5350342,24.795532,-24.6109,-0.099975586,0.3163147,0.44898987,-1.0816913,-0.15299857,-0.7102823
1.5350342,24.795532,-24.6109,-0.099975586,0.3163147,0.44898987,-1.0816913,-0.15299857,-0.7102823
1.5350342,24.795532,-24.6109,-0.099975586,0.3163147,0.44898987,-1.0816913,-0.15299857,-0.7102823
1.5350342,24.795532,-24.6109,-0.099975586,0.3163147,0.44898987,-1.0816913,-0.15299857,-0.7102823
1.5350342,24.795532,-24.6109,-0.099975586,0.3163147,0.44898987,-1.0816913,-0.15299857,-0.7102823
1.5350342,24.795532,-24.6109,-0.099975586,0.3163147,0.44898987,-1.0816913,-0.15299857,-0.7102823
1.5350342,24.795532,-24.6109,-0.099975586,0.3163147,0.44898987,-1.0816913,-0.15299857,-0.7102823
1.5350342,24.795532,-24.6109,-0.099975586,0.3163147,0.44898987,-1.0816913,-0.15299857,-0.7102823
1.5350342,24.795532,-24.6109,-0.099975586,0.3163147,0.44898987,-1.0816913,-0.15299857,-0.7102823
1.5350342,24.795532,-24.6109,-0.099975586,0.3163147,0.44898987,-1.0816913,-0.15299857,-0.7102823
1.5350342,24.795532,-24.6109,-0.099975586,0.3163147,0.44898987,-1.0816913,-0.15299857,-0.7102823
1.5350342,24.795532,-24.6109,-0.099975586,0.3163147,0.44898987,-1.0816913,-0.15299857,-0.7102823
1.5350342,24.795532,-24.6109,-0.099975586,0.3163147,0.44898987,-1.0816913,-0.15299857,-0.7102823
1.5350342,24.795532,-24.6109,-0.099975586,0.3163147,0.44898987,-1.0816913,-0.15299857,-0.7102823
8.529663,22.782898,-23.226929,0.24449158,0.0024261475,1.0919647,-1.4901155,-1.1066749,1.0036688
8.529663,22.782898,-23.226929,0.24449158,0.0024261475,1.0919647,-1.4901155,-1.1066749,1.0036688
8.529663,22.782898,-23.226929,0.24449158,0.0024261475,1.0919647,-1.4901155,-1.1066749,1.0036688
8.529663,22.782898,-23.226929,0.24449158,0.0024261475,1.0919647,-1.4901155,-1.1066749,1.0036688
8.529663,22.782898,-23.226929,0.24449158,0.0024261475,1.0919647,-1.4901155,-1.1066749,1.0036688
8.529663,22.782898,-23.226929,0.24449158,0.0024261475,1.0919647,-1.4901155,-1.1066749,1.0036688
8.529663,22.782898,-23.226929,0.24449158,0.0024261475,1.0919647,-1.4901155,-1.1066749,1.0036688
8.529663,22.782898,-23.226929,0.24449158,0.0024261475,1.0919647,-1.4901155,-1.1066749,1.0036688
8.529663,22.782898,-23.226929,0.24449158,0.0024261475,1.0919647,-1.4901155,-1.1066749,1.0036688
8.529663,22.782898,-23.226929,0.24449158,0.0024261475,1.0919647,-1.4901155,-1.1066749,1.0036688
8.529663,22.782898,-23.226929,0.24449158,0.0024261475,1.0919647,-1.4901155,-1.1066749,1.0036688
8.529663,22.782898,-23.226929,0.24449158,0.0024261475,1.0919647,-1.4901155,-1.1066749,1.0036688
8.529663,22.782898,-23.226929,0.24449158,0.0024261475,1.0919647,-1.4901155,-1.1066749,1.0036688
8.529663,22.782898,-23.226929,0.24449158,0.0024261475,1.0919647,-1.4901155,-1.1066749,1.0036688
8.529663,22.782898,-23.226929,0.24449158,0.0024261475,1.0919647,-1.4901155,-1.1066749,1.0036688
8.529663,22.782898,-23.226929,0.24449158,0.0024261475,1.0919647,-1.4901155,-1.1066749,1.0036688
8.529663,22.782898,-23.226929,0.24449158,0.0024261475,1.0919647,-1.4901155,-1.1066749,1.0036688
8.529663,22.782898,-23.226929,0.24449158,0.0024261475,1.0919647,-1.4901155,-1.1066749,1.0036688
8.529663,22.782898,-23.226929,0.24449158,0.0024261475,1.0919647,-1.4901155,-1.1066749,1.0036688
8.529663,22.782898,-23.226929,0.24449158,0.0024261475,1.0919647,-1.4901155,-1.1066749,1.0036688
8.529663,22.782898,-23.226929,0.24449158,0.0024261475,1.0919647,-1.4901155,-1.1066749,1.0036688
8.529663,22.782898,-23.226929,0.24449158,0.0024261475,1.0919647,-1.4901155,-1.1066749,1.0036688
8.529663,22.782898,-23.226929,0.24449158,0.0024261475,1.0919647,-1.4901155,-1.1066749,1.0036688
14.694214,21.707153,-22.180176,-0.39178467,0.13027954,0.8865967,-0.65876436,-0.23369561,-1.0312157
14.694214,21.707153,-22.180176,-0.39178467,0.13027954,0.8865967,-0.65876436,-0.23369561,-1.0312157
14.694214,21.707153,-22.180176,-0.39178467,0.13027954,0.8865967,-0.65876436,-0.23369561,-1.0312157
14.694214,21.707153,-22.180176,-0.39178467,0.13027954,0.8865967,-0.65876436,-0.23369561,-1.0312157
14.694214,21.707153,-22.180176,-0.39178467,0.13027954,0.8865967,-0.65876436,-0.23369561,-1.0312157
14.694214,21.707153,-22.180176,-0.39178467,0.13027954,0.8865967,-0.65876436,-0.23369561,-1.0312157
14.694214,21.707153,-22.180176,-0.39178467,0.13027954,0.8865967,-0.65876436,-0.23369561,-1.0312157
14.694214,21.707153,-22.180176,0.24258423,0.02053833,1.162674,-1.3732711,-1.0238806,0.92732143
14.694214,21.707153,-22.180176,0.24258423,0.02053833,1.162674,-1.3732711,-1.0238806,0.92732143
14.694214,21.707153,-22.180176,0.24258423,0.02053833,1.162674,-1.3732711,-1.0238806,0.92732143
14.694214,21.707153,-22.180176,0.24258423,0.02053833,1.162674,-1.3732711,-1.0238806,0.92732143
14.694214,21.707153,-22.180176,0.24258423,0.02053833,1.162674,-1.3732711,-1.0238806,0.92732143
14.694214,21.707153,-22.180176,0.24258423,0.02053833,1.162674,-1.3732711,-1.0238806,0.92732143
14.694214,21.707153,-22.180176,0.24258423,0.02053833,1.162674,-1.3732711,-1.0238806,0.92732143
14.694214,21.707153,-22.180176,0.24258423,0.02053833,1.162674,-1.3732711,-1.0238806,0.92732143
14.694214,21.707153,-22.180176,0.24258423,0.02053833,1.162674,-1.3732711,-1.0238806,0.92732143
14.694214,21.707153,-22.180176,0.24258423,0.02053833,1.162674,-1.3732711,-1.0238806,0.92732143
14.694214,21.707153,-22.180176,0.24258423,0.02053833,1.162674,-1.3732711,-1.0238806,0.92732143
14.694214,21.707153,-22.180176,0.24258423,0.02053833,1.162674,-1.3732711,-1.0238806,0.92732143
14.694214,21.707153,-22.180176,0.24258423,0.02053833,1.162674,-1.3732711,-1.0238806,0.92732143
14.694214,21.707153,-22.180176,0.24258423,0.02053833,1.162674,-1.3732711,-1.0238806,0.92732143
14.694214,21.707153,-22.180176,0.24258423,0.02053833,1.162674,-1.3732711,-1.0238806,0.92732143
14.694214,21.707153,-22.180176,0.24258423,0.02053833,1.162674,-1.3732711,-1.0238806,0.92732143
14.694214,21.707153,-22.180176,0.24258423,0.02053833,1.162674,-1.3732711,-1.0238806,0.92732143
18.199158,20.118713,-21.609497,0.24258423,0.02053833,1.162674,-1.3732711,-1.0238806,0.92732143
18.199158,20.118713,-21.609497,0.24258423,0.02053833,1.162674,-1.3732711,-1.0238806,0.92732143
18.199158,20.118713,-21.609497,0.13116455,-0.08627319,1.386383,-1.3099529,-0.43752456,-0.92368793
18.199158,20.118713,-21.609497,0.13116455,-0.08627319,1.386383,-1.3099529,-0.43752456,-0.92368793
18.199158,20.118713,-21.609497,0.13116455,-0.08627319,1.386383,-1.3099529,-0.43752456,-0.92368793
18.199158,20.118713,-21.609497,0.13116455,-0.08627319,1.386383,-1.3099529,-0.43752456,-0.92368793
18.199158,20.118713,-21.609497,0.13116455,-0.08627319,1.386383,-1.3099529,-0.43752456,-0.92368793
23.094177,13.555908,-21.009827,0.13116455,-0.08627319,1.386383,-1.3099529,-0.43752456,-0.92368793
23.094177,13.555908,-21.009827,0.13116455,-0.08627319,1.386383,-1.3099529,-0.43752456,-0.92368793
23.094177,13.555908,-21.009827,0.13116455,-0.08627319,1.386383,-1.3099529,-0.43752456,-0.92368793
23.094177,13.555908,-21.009827,0.13116455,-0.08627319,1.386383,-1.3099529,-0.43752456,-0.92368793
23.094177,13.555908,-21.009827,0.13116455,-0.08627319,1.386383,-1.3099529,-0.43752456,-0.92368793
23.094177,13.555908,-21.009827,0.13116455,-0.08627319,1.386383,-1.3099529,-0.43752456,-0.92368793
23.094177,13.555908,-21.009827,0.13116455,-0.08627319,1.386383,-1.3099529,-0.43752456,-0.92368793
23.094177,13.555908,-21.009827,0.13116455,-0.08627319,1.386383,-1.3099529,-0.43752456,-0.92368793
23.094177,13.555908,-21.009827,0.13116455,-0.08627319,1.386383,-1.3099529,-0.43752456,-0.92368793
23.094177,13.555908,-21.009827,0.13116455,-0.08627319,1.386383,-1.3099529,-0.43752456,-0.92368793
23.094177,13.555908,-21.009827,0.13116455,-0.08627319,1.386383,-1.3099529,-0.43752456,-0.92368793
23.094177,13.555908,-21.009827,0.13116455,-0.08627319,1.386383,-1.3099529,-0.43752456,-0.92368793
23.094177,13.555908,-21.009827,0.13116455,-0.08627319,1.386383,-1.3099529,-0.43752456,-0.92368793
23.094177,13.555908,-21.009827,0.13116455,-0.08627319,1.386383,-1.3099529,-0.43752456,-0.92368793
23.094177,13.555908,-21.009827,0.13116455,-0.08627319,1.386383,-1.3099529,-0.43752456,-0.92368793
23.094177,13.555908,-21.009827,0.13116455,-0.08627319,1.386383,-1.3099529,-0.43752456,-0.92368793
23.094177,13.555908,-21.009827,0.13116455,-0.08627319,1.386383,-1.3099529,-0.43752456,-0.92368793
23.094177,13.555908,-21.009827,0.45703125,-0.43055725,2.2250366,-3.9656343,-1.2616946,1.0527706
23.094177,13.555908,-21.009827,0.45703125,-0.43055725,2.2250366,-3.9656343,-1.2616946,1.0527706
23.094177,13.555908,-21.009827,0.45703125,-0.43055725,2.2250366,-3.9656343,-1.2616946,1.0527706
28.598022,-0.8895874,-20.291138,0.45703125,-0.43055725,2.2250366,-3.9656343,-1.2616946,1.0527706
28.598022,-0.8895874,-20.291138,0.45703125,-0.43055725,2.2250366,-3.9656343,-1.2616946,1.0527706
28.598022,-0.8895874,-20.291138,0.45703125,-0.43055725,2.2250366,-3.9656343,-1.2616946,1.0527706
28.598022,-0.8895874,-20.291138,0.45703125,-0.43055725,2.2250366,-3.9656343,-1.2616946,1.0527706
28.598022,-0.8895874,-20.291138,0.45703125,-0.43055725,2.2250366,-3.9656343,-1.2616946,1.0527706
28.598022,-0.8895874,-20.291138,0.45703125,-0.43055725,2.2250366,-3.9656343,-1.2616946,1.0527706
28.598022,-0.8895874,-20.291138,0.45703125,-0.43055725,2.2250366,-3.9656343,-1.2616946,1.0527706
28.598022,-0.8895874,-20.291138,0.45703125,-0.43055725,2.2250366,-3.9656343,-1.2616946,1.0527706
28.598022,-0.8895874,-20.291138,0.45703125,-0.43055725,2.2250366,-3.9656343,-1.2616946,1.0527706
28.598022,-0.8895874,-20.291138,0.45703125,-0.43055725,2.2250366,-3.9656343,-1.2616946,1.0527706
28.598022,-0.8895874,-20.291138,0.45703125,-0.43055725,2.2250366,-3.9656343,-1.2616946,1.0527706
28.598022,-0.8895874,-20.291138,0.45703125,-0.43055725,2.2250366,-3.9656343,-1.2616946,1.0527706
28.598022,-0.8895874,-20.291138,0.45703125,-0.43055725,2.2250366,-3.9656343,-1.2616946,1.0527706
28.598022,-0.8895874,-20.291138,0.45703125,-0.43055725,2.2250366,-3.9656343,-1.2616946,1.0527706
28.598022,-0.8895874,-20.291138,0.45703125,-0.43055725,2.2250366,-3.9656343,-1.2616946,1.0527706
28.598022,-0.8895874,-20.291138,0.45703125,-0.43055725,2.2250366,-3.9656343,-1.2616946,1.0527706
28.598022,-0.8895874,-20.291138,0.45703125,-0.43055725,2.2250366,-3.9656343,-1.2616946,1.0527706
28.598022,-0.8895874,-20.291138,0.45703125,-0.43055725,2.2250366,-3.9656343,-1.2616946,1.0527706
28.598022,-0.8895874,-20.291138,0.45703125,-0.43055725,2.2250366,-3.9656343,-1.2616946,1.0527706
28.598022,-0.8895874,-20.291138,0.45703125,-0.43055725,2.2250366,-3.9656343,-1.2616946,1.0527706
28.598022,-0.8895874,-20.291138,-0.2442627,0.65345764,2.0025635,-1.591012,-0.69171983,-0.7160654
28.166199,-14.668274,-21.434021,-0.2442627,0.65345764,2.0025635,-1.591012,-0.69171983,-0.7160654
28.166199,-14.668274,-21.434021,-0.2442627,0.65345764,2.0025635,-1.591012,-0.69171983,-0.7160654
28.166199,-14.668274,-21.434021,-0.2442627,0.65345764,2.0025635,-1.591012,-0.69171983,-0.7160654
28.166199,-14.668274,-21.434021,-0.2442627,0.65345764,2.0025635,-1.591012,-0.69171983,-0.7160654
28.166199,-14.668274,-21.434021,-0.2442627,0.65345764,2.0025635,-1.591012,-0.69171983,-0.7160654
28.166199,-14.668274,-21.434021,-0.2442627,0.65345764,2.0025635,-1.591012,-0.69171983,-0.7160654
28.166199,-14.668274,-21.434021,-0.2442627,0.65345764,2.0025635,-1.591012,-0.69171983,-0.7160654
28.166199,-14.668274,-21.434021,-0.2442627,0.65345764,2.0025635,-1.591012,-0.69171983,-0.7160654
28.166199,-14.668274,-21.434021,-0.2442627,0.65345764,2.0025635,-1.591012,-0.69171983,-0.7160654
28.166199,-14.668274,-21.434021,-0.2442627,0.65345764,2.0025635,-1.591012,-0.69171983,-0.7160654
28.166199,-14.668274,-21.434021,-0.2442627,0.65345764,2.0025635,-1.591012,-0.69171983,-0.7160654
28.166199,-14.668274,-21.434021,-0.2442627,0.65345764,2.0025635,-1.591012,-0.69171983,-0.7160654
28.166199,-14.668274,-21.434021,-0.2442627,0.65345764,2.0025635,-1.591012,-0.69171983,-0.7160654
28.166199,-14.668274,-21.434021,-0.2442627,0.65345764,2.0025635,-1.591012,-0.69171983,-0.7160654
28.166199,-14.668274,-21.434021,-0.2442627,0.65345764,2.0025635,-1.591012,-0.69171983,-0.7160654
28.166199,-14.668274,-21.434021,-0.2442627,0.65345764,2.0025635,-1.591012,-0.69171983,-0.7160654
28.166199,-14.668274,-21.434021,-0.2442627,0.65345764,2.0025635,-1.591012,-0.69171983,-0.7160654
28.166199,-14.668274,-21.434021,-0.2442627,0.65345764,2.0025635,-1.591012,-0.69171983,-0.7160654
28.166199,-14.668274,-21.434021,-0.2442627,0.65345764,2.0025635,-1.591012,-0.69171983,-0.7160654
28.166199,-14.668274,-21.434021,-0.2442627,0.65345764,2.0025635,-1.591012,-0.69171983,-0.7160654
28.166199,-14.668274,-21.434021,-0.2442627,0.65345764,2.0025635,-1.591012,-0.69171983,-0.7160654
28.166199,-14.668274,-21.434021,-0.2442627,0.65345764,2.0025635,-1.591012,-0.69171983,-0.7160654
28.166199,-14.668274,-21.434021,-0.2442627,0.65345764,2.0025635,-1.591012,-0.69171983,-0.7160654
24.720764,-18.777466,-23.147583,0.17585754,-0.16926575,1.790741,-1.4531369,-0.18880135,1.057354
24.720764,-18.777466,-23.147583,0.17585754,-0.16926575,1.790741,-1.4531369,-0.18880135,1.057354
24.720764,-18.777466,-23.147583,0.17585754,-0.16926575,1.790741,-1.4531369,-0.18880135,1.057354
24.720764,-18.777466,-23.147583,0.17585754,-0.16926575,1.790741,-1.4531369,-0.18880135,1.057354
24.720764,-18.777466,-23.147583,0.17585754,-0.16926575,1.790741,-1.4531369,-0.18880135,1.057354
24.720764,-18.777466,-23.147583,0.17585754,-0.16926575,1.790741,-1.4531369,-0.18880135,1.057354
24.720764,-18.777466,-23.147583,0.17585754,-0.16926575,1.790741,-1.4531369,-0.18880135,1.057354
24.720764,-18.777466,-23.147583,0.11143494,-0.32112122,1.0342102,-2.7619314,0.928907,-1.1087656
24.720764,-18.777466,-23.147583,0.11143494,-0.32112122,1.0342102,-2.7619314,0.928907,-1.1087656
24.720764,-18.777466,-23.147583,0.11143494,-0.32112122,1.0342102,-2.7619314,0.928907,-1.1087656
24.720764,-18.777466,-23.147583,0.11143494,-0.32112122,1.0342102,-2.7619314,0.928907,-1.1087656
24.720764,-18.777466,-23.147583,0.11143494,-0.32112122,1.0342102,-2.7619314,0.928907,-1.1087656
24.720764,-18.777466,-23.147583,0.11143494,-0.32112122,1.0342102,-2.7619314,0.928907,-1.1087656
24.720764,-18.777466,-23.147583,0.11143494,-0.32112122,1.0342102,-2.7619314,0.928907,-1.1087656
24.720764,-18.777466,-23.147583,0.11143494,-0.32112122,1.0342102,-2.7619314,0.928907,-1.1087656
24.720764,-18.777466,-23.147583,0.11143494,-0.32112122,1.0342102,-2.7619314,0.928907,-1.1087656
24.720764,-18.777466,-23.147583,0.11143494,-0.32112122,1.0342102,-2.7619314,0.928907,-1.1087656
24.720764,-18.777466,-23.147583,0.11143494,-0.32112122,1.0342102,-2.7619314,0.928907,-1.1087656
24.720764,-18.777466,-23.147583,0.11143494,-0.32112122,1.0342102,-2.7619314,0.928907,-1.1087656
24.720764,-18.777466,-23.147583,0.11143494,-0.32112122,1.0342102,-2.7619314,0.928907,-1.1087656
24.720764,-18.777466,-23.147583,0.11143494,-0.32112122,1.0342102,-2.7619314,0.928907,-1.1087656
24.720764,-18.777466,-23.147583,0.11143494,-0.32112122,1.0342102,-2.7619314,0.928907,-1.1087656
24.720764,-18.777466,-23.147583,0.11143494,-0.32112122,1.0342102,-2.7619314,0.928907,-1.1087656
24.720764,-18.777466,-23.147583,0.11143494,-0.32112122,1.0342102,-2.7619314,0.928907,-1.1087656
24.720764,-18.777466,-23.147583,0.11143494,-0.32112122,1.0342102,-2.7619314,0.928907,-1.1087656
24.720764,-18.777466,-23.147583,0.11143494,-0.32112122,1.0342102,-2.7619314,0.928907,-1.1087656
24.720764,-18.777466,-23.147583,0.11143494,-0.32112122,1.0342102,-2.7619314,0.928907,-1.1087656
24.720764,-18.777466,-23.147583,0.11143494,-0.32112122,1.0342102,-2.7619314,0.928907,-1.1087656
24.720764,-18.777466,-23.147583,0.11143494,-0.32112122,1.0342102,-2.7619314,0.928907,-1.1087656
24.720764,-18.777466,-23.147583,0.11143494,-0.32112122,1.0342102,-2.7619314,0.928907,-1.1087656
24.720764,-18.777466,-23.147583,0.11143494,-0.32112122,1.0342102,-2.7619314,0.928907,-1.1087656
24.720764,-18.777466,-23.147583,0.11143494,-0.32112122,1.0342102,-2.7619314,0.928907,-1.1087656
20.58258,-22.77832,-24.255371,0.5426483,0.26142883,1.0317383,-1.8305454,-0.75936854,2.0326948
20.58258,-22.77832,-24.255371,0.5426483,0.26142883,1.0317383,-1.8305454,-0.75936854,2.0326948
20.58258,-22.77832,-24.255371,0.5426483,0.26142883,1.0317383,-1.8305454,-0.75936854,2.0326948
20.58258,-22.77832,-24.255371,0.5426483,0.26142883,1.0317383,-1.8305454,-0.75936854,2.0326948
20.58258,-22.77832,-24.255371,0.5426483,0.26142883,1.0317383,-1.8305454,-0.75936854,2.0326948
12.445068,-32.092285,-21.299744,0.5426483,0.26142883,1.0317383,-1.8305454,-0.75936854,2.0326948
12.445068,-32.092285,-21.299744,0.5426483,0.26142883,1.0317383,-1.8305454,-0.75936854,2.0326948
12.445068,-32.092285,-21.299744,0.5426483,0.26142883,1.0317383,-1.8305454,-0.75936854,2.0326948
12.445068,-32.092285,-21.299744,0.5426483,0.26142883,1.0317383,-1.8305454,-0.75936854,2.0326948
12.445068,-32.092285,-21.299744,0.5426483,0.26142883,1.0317383,-1.8305454,-0.75936854,2.0326948
12.445068,-32.092285,-21.299744,0.5426483,0.26142883,1.0317383,-1.8305454,-0.75936854,2.0326948
12.445068,-32.092285,-21.299744,0.5426483,0.26142883,1.0317383,-1.8305454,-0.75936854,2.0326948
12.445068,-32.092285,-21.299744,0.5426483,0.26142883,1.0317383,-1.8305454,-0.75936854,2.0326948
12.445068,-32.092285,-21.299744,0.5426483,0.26142883,1.0317383,-1.8305454,-0.75936854,2.0326948
12.445068,-32.092285,-21.299744,0.5426483,0.26142883,1.0317383,-1.8305454,-0.75936854,2.0326948
12.445068,-32.092285,-21.299744,0.5426483,0.26142883,1.0317383,-1.8305454,-0.75936854,2.0326948
12.445068,-32.092285,-21.299744,0.5426483,0.26142883,1.0317383,-1.8305454,-0.75936854,2.0326948
12.445068,-32.092285,-21.299744,0.5426483,0.26142883,1.0317383,-1.8305454,-0.75936854,2.0326948
12.445068,-32.092285,-21.299744,0.5426483,0.26142883,1.0317383,-1.8305454,-0.75936854,2.0326948
12.445068,-32.092285,-21.299744,0.5426483,0.26142883,1.0317383,-1.8305454,-0.75936854,2.0326948
12.445068,-32.092285,-21.299744,0.5426483,0.26142883,1.0317383,-1.8305454,-0.75936854,2.0326948
12.445068,-32.092285,-21.299744,0.5426483,0.26142883,1.0317383,-1.8305454,-0.75936854,2.0326948
12.445068,-32.092285,-21.299744,0.5426483,0.26142883,1.0317383,-1.8305454,-0.75936854,2.0326948
12.445068,-32.092285,-21.299744,0.5426483,0.26142883,1.0317383,-1.8305454,-0.75936854,2.0326948
12.445068,-32.092285,-21.299744,0.5426483,0.26142883,1.0317383,-1.8305454,-0.75936854,2.0326948
12.445068,-32.092285,-21.299744,0.5426483,0.26142883,1.0317383,-1.8305454,-0.75936854,2.0326948
12.445068,-32.092285,-21.299744,0.5426483,0.26142883,1.0317383,-1.8305454,-0.75936854,2.0326948
12.445068,-32.092285,-21.299744,0.5426483,0.26142883,1.0317383,-1.8305454,-0.75936854,2.0326948
11.529541,-33.117676,-21.165466,0.20327759,0.3677826,0.9699707,-0.03578657,-0.88020265,-1.41465
11.529541,-33.117676,-21.165466,0.20327759,0.3677826,0.9699707,-0.03578657,-0.88020265,-1.41465
11.529541,-33.117676,-21.165466,0.20327759,0.3677826,0.9699707,-0.03578657,-0.88020265,-1.41465
11.529541,-33.117676,-21.165466,0.20327759,0.3677826,0.9699707,-0.03578657,-0.88020265,-1.41465
11.529541,-33.117676,-21.165466,-0.41360474,0.21995544,-0.12696838,-0.1765054,-0.79320014,0.31209183
11.529541,-33.117676,-21.165466,-0.41360474,0.21995544,-0.12696838,-0.1765054,-0.79320014,0.31209183
11.529541,-33.117676,-21.165466,-0.41360474,0.21995544,-0.12696838,-0.1765054,-0.79320014,0.31209183
11.529541,-33.117676,-21.165466,-0.41360474,0.21995544,-0.12696838,-0.1765054,-0.79320014,0.31209183
11.529541,-33.117676,-21.165466,-0.41360474,0.21995544,-0.12696838,-0.1765054,-0.79320014,0.31209183
11.529541,-33.117676,-21.165466,-0.41360474,0.21995544,-0.12696838,-0.1765054,-0.79320014,0.31209183
11.529541,-33.117676,-21.165466,-0.41360474,0.21995544,-0.12696838,-0.1765054,-0.79320014,0.31209183
11.529541,-33.117676,-21.165466,-0.41360474,0.21995544,-0.12696838,-0.1765054,-0.79320014,0.31209183
11.529541,-33.117676,-21.165466,-0.41360474,0.21995544,-0.12696838,-0.1765054,-0.79320014,0.31209183
11.529541,-33.117676,-21.165466,-0.41360474,0.21995544,-0.12696838,-0.1765054,-0.79320014,0.31209183
11.529541,-33.117676,-21.165466,-0.41360474,0.21995544,-0.12696838,-0.1765054,-0.79320014,0.31209183
11.529541,-33.117676,-21.165466,-0.41360474,0.21995544,-0.12696838,-0.1765054,-0.79320014,0.31209183
11.529541,-33.117676,-21.165466,-0.41360474,0.21995544,-0.12696838,-0.1765054,-0.79320014,0.31209183
11.529541,-33.117676,-21.165466,-0.41360474,0.21995544,-0.12696838,-0.1765054,-0.79320014,0.31209183
11.529541,-33.117676,-21.165466,-0.41360474,0.21995544,-0.12696838,-0.1765054,-0.79320014,0.31209183
11.529541,-33.117676,-21.165466,-0.41360474,0.21995544,-0.12696838,-0.1765054,-0.79320014,0.31209183
11.529541,-33.117676,-21.165466,-0.41360474,0.21995544,-0.12696838,-0.1765054,-0.79320014,0.31209183
11.529541,-33.117676,-21.165466,-0.41360474,0.21995544,-0.12696838,-0.1765054,-0.79320014,0.31209183
11.529541,-33.117676,-21.165466,-0.41360474,0.21995544,-0.12696838,-0.1765054,-0.79320014,0.31209183
11.529541,-33.117676,-21.165466,-0.41360474,0.21995544,-0.12696838,-0.1765054,-0.79320014,0.31209183
11.529541,-33.117676,-21.165466,-0.41360474,0.21995544,-0.12696838,-0.1765054,-0.79320014,0.31209183
11.529541,-33.117676,-21.165466,-0.41360474,0.21995544,-0.12696838,-0.1765054,-0.79320014,0.31209183
11.529541,-33.117676,-21.165466,-0.41360474,0.21995544,-0.12696838,-0.1765054,-0.79320014,0.31209183
11.529541,-33.117676,-21.165466,-0.41360474,0.21995544,-0.12696838,-0.1765054,-0.79320014,0.31209183
11.367798,-32.74994,-24.073792,-0.19769287,-0.072265625,-0.01272583,-0.30070016,-0.38555583,0.28336906
11.367798,-32.74994,-24.073792,-0.19769287,-0.072265625,-0.01272583,-0.30070016,-0.38555583,0.28336906
11.367798,-32.74994,-24.073792,-0.19769287,-0.072265625,-0.01272583,-0.30070016,-0.38555583,0.28336906
11.367798,-32.74994,-24.073792,-0.19769287,-0.072265625,-0.01272583,-0.30070016,-0.38555583,0.28336906
11.367798,-32.74994,-24.073792,-0.19769287,-0.072265625,-0.01272583,-0.30070016,-0.38555583,0.28336906
11.367798,-32.74994,-24.073792,-0.19769287,-0.072265625,-0.01272583,-0.30070016,-0.38555583,0.28336906
11.367798,-32.74994,-24.073792,-0.19769287,-0.072265625,-0.01272583,-0.30070016,-0.38555583,0.28336906
11.367798,-32.74994,-24.073792,-0.19769287,-0.072265625,-0.01272583,-0.30070016,-0.38555583,0.28336906
11.367798,-32.74994,-24.073792,-0.19769287,-0.072265625,-0.01272583,-0.30070016,-0.38555583,0.28336906
11.367798,-32.74994,-24.073792,-0.19769287,-0.072265625,-0.01272583,-0.30070016,-0.38555583,0.28336906
12.135315,-32.27539,-25.694275,-0.19769287,-0.072265625,-0.01272583,-0.30070016,-0.38555583,0.28336906
12.135315,-32.27539,-25.694275,-0.19769287,-0.072265625,-0.01272583,-0.30070016,-0.38555583,0.28336906
12.135315,-32.27539,-25.694275,-0.19769287,-0.072265625,-0.01272583,-0.30070016,-0.38555583,0.28336906
12.135315,-32.27539,-25.694275,-0.19769287,-0.072265625,-0.01272583,-0.30070016,-0.38555583,0.28336906
12.135315,-32.27539,-25.694275,-0.19769287,-0.072265625,-0.01272583,-0.30070016,-0.38555583,0.28336906
12.135315,-32.27539,-25.694275,-0.19769287,-0.072265625,-0.01272583,-0.30070016,-0.38555583,0.28336906
12.135315,-32.27539,-25.694275,-0.19769287,-0.072265625,-0.01272583,-0.30070016,-0.38555583,0.28336906
12.135315,-32.27539,-25.694275,-0.19769287,-0.072265625,-0.01272583,-0.30070016,-0.38555583,0.28336906
12.135315,-32.27539,-25.694275,-0.19769287,-0.072265625,-0.01272583,-0.30070016,-0.38555583,0.28336906
12.135315,-32.27539,-25.694275,-0.19769287,-0.072265625,-0.01272583,-0.30070016,-0.38555583,0.28336906
12.135315,-32.27539,-25.694275,-0.19769287,-0.072265625,-0.01272583,-0.30070016,-0.38555583,0.28336906
12.135315,-32.27539,-25.694275,-0.19769287,-0.072265625,-0.01272583,-0.30070016,-0.38555583,0.28336906
12.135315,-32.27539,-25.694275,-0.19769287,-0.072265625,-0.01272583,-0.30070016,-0.38555583,0.28336906
12.135315,-32.27539,-25.694275,-0.19769287,-0.072265625,-0.01272583,-0.30070016,-0.38555583,0.28336906
12.135315,-32.27539,-25.694275,-0.19769287,-0.072265625,-0.01272583,-0.30070016,-0.38555583,0.28336906
12.135315,-32.27539,-25.694275,-0.19769287,-0.072265625,-0.01272583,-0.30070016,-0.38555583,0.28336906
12.135315,-32.27539,-25.694275,-0.19769287,-0.072265625,-0.01272583,-0.30070016,-0.38555583,0.28336906
12.135315,-32.27539,-25.694275,-0.19769287,-0.072265625,-0.01272583,-0.30070016,-0.38555583,0.28336906
12.135315,-32.27539,-25.694275,-0.19769287,-0.072265625,-0.01272583,-0.30070016,-0.38555583,0.28336906
12.738037,-33.068848,-25.579834,0.060058594,0.56970215,-0.0070495605,1.8516933,0.5555317,-0.449399
12.738037,-33.068848,-25.579834,0.060058594,0.56970215,-0.0070495605,1.8516933,0.5555317,-0.449399
12.738037,-33.068848,-25.579834,0.060058594,0.56970215,-0.0070495605,1.8516933,0.5555317,-0.449399
12.738037,-33.068848,-25.579834,0.060058594,0.56970215,-0.0070495605,1.8516933,0.5555317,-0.449399
12.738037,-33.068848,-25.579834,0.46058655,-0.3312378,-0.22302246,0.054663867,-0.9155973,1.0876913
12.738037,-33.068848,-25.579834,0.46058655,-0.3312378,-0.22302246,0.054663867,-0.9155973,1.0876913
12.738037,-33.068848,-25.579834,0.46058655,-0.3312378,-0.22302246,0.054663867,-0.9155973,1.0876913
12.738037,-33.068848,-25.579834,0.46058655,-0.3312378,-0.22302246,0.054663867,-0.9155973,1.0876913
12.738037,-33.068848,-25.579834,0.46058655,-0.3312378,-0.22302246,0.054663867,-0.9155973,1.0876913
12.738037,-33.068848,-25.579834,0.46058655,-0.3312378,-0.22302246,0.054663867,-0.9155973,1.0876913
12.738037,-33.068848,-25.579834,0.46058655,-0.3312378,-0.22302246,0.054663867,-0.9155973,1.0876913
12.738037,-33.068848,-25.579834,0.46058655,-0.3312378,-0.22302246,0.054663867,-0.9155973,1.0876913
12.738037,-33.068848,-25.579834,0.46058655,-0.3312378,-0.22302246,0.054663867,-0.9155973,1.0876913
12.738037,-33.068848,-25.579834,0.46058655,-0.3312378,-0.22302246,0.054663867,-0.9155973,1.0876913
12.738037,-33.068848,-25.579834,0.46058655,-0.3312378,-0.22302246,0.054663867,-0.9155973,1.0876913
12.738037,-33.068848,-25.579834,0.46058655,-0.3312378,-0.22302246,0.054663867,-0.9155973,1.0876913
12.738037,-33.068848,-25.579834,0.46058655,-0.3312378,-0.22302246,0.054663867,-0.9155973,1.0876913
12.738037,-33.068848,-25.579834,0.46058655,-0.3312378,-0.22302246,0.054663867,-0.9155973,1.0876913
12.738037,-33.068848,-25.579834,0.46058655,-0.3312378,-0.22302246,0.054663867,-0.9155973,1.0876913
12.738037,-33.068848,-25.579834,0.46058655,-0.3312378,-0.22302246,0.054663867,-0.9155973,1.0876913
12.738037,-33.068848,-25.579834,0.46058655,-0.3312378,-0.22302246,0.054663867,-0.9155973,1.0876913
12.738037,-33.068848,-25.579834,0.46058655,-0.3312378,-0.22302246,0.054663867,-0.9155973,1.0876913
12.738037,-33.068848,-25.579834,0.46058655,-0.3312378,-0.22302246,0.054663867,-0.9155973,1.0876913
12.738037,-33.068848,-25.579834,0.46058655,-0.3312378,-0.22302246,0.054663867,-0.9155973,1.0876913
12.738037,-33.068848,-25.579834,0.46058655,-0.3312378,-0.22302246,0.054663867,-0.9155973,1.0876913
12.738037,-33.068848,-25.579834,0.46058655,-0.3312378,-0.22302246,0.054663867,-0.9155973,1.0876913
12.738037,-33.068848,-25.579834,0.46058655,-0.3312378,-0.22302246,0.054663867,-0.9155973,1.0876913
12.738037,-33.068848,-25.579834,0.46058655,-0.3312378,-0.22302246,0.054663867,-0.9155973,1.0876913
14.640808,-33.2901,-25.991821,-0.41644287,0.44487,-0.92689514,1.6122171,-0.76749676,-1.157484
14.640808,-33.2901,-25.991821,-0.41644287,0.44487,-0.92689514,1.6122171,-0.76749676,-1.157484
14.640808,-33.2901,-25.991821,-0.41644287,0.44487,-0.92689514,1.6122171,-0.76749676,-1.157484
14.640808,-33.2901,-25.991821,-0.41644287,0.44487,-0.92689514,1.6122171,-0.76749676,-1.157484
14.640808,-33.2901,-25.991821,-0.41644287,0.44487,-0.92689514,1.6122171,-0.76749676,-1.157484
14.640808,-33.2901,-25.991821,-0.41644287,0.44487,-0.92689514,1.6122171,-0.76749676,-1.157484
14.640808,-33.2901,-25.991821,-0.41644287,0.44487,-0.92689514,1.6122171,-0.76749676,-1.157484
14.640808,-33.2901,-25.991821,-0.41644287,0.44487,-0.92689514,1.6122171,-0.76749676,-1.157484
14.640808,-33.2901,-25.991821,-0.41644287,0.44487,-0.92689514,1.6122171,-0.76749676,-1.157484
14.640808,-33.2901,-25.991821,-0.41644287,0.44487,-0.92689514,1.6122171,-0.76749676,-1.157484
14.640808,-33.2901,-25.991821,-0.41644287,0.44487,-0.92689514,1.6122171,-0.76749676,-1.157484
14.640808,-33.2901,-25.991821,-0.41644287,0.44487,-0.92689514,1.6122171,-0.76749676,-1.157484
14.640808,-33.2901,-25.991821,-0.41644287,0.44487,-0.92689514,1.6122171,-0.76749676,-1.157484
19.747925,-33.351135,-25.753784,-0.41644287,0.44487,-0.92689514,1.6122171,-0.76749676,-1.157484
19.747925,-33.351135,-25.753784,-0.41644287,0.44487,-0.92689514,1.6122171,-0.76749676,-1.157484
19.747925,-33.351135,-25.753784,-0.41644287,0.44487,-0.92689514,1.6122171,-0.76749676,-1.157484
19.747925,-33.351135,-25.753784,-0.41644287,0.44487,-0.92689514,1.6122171,-0.76749676,-1.157484
19.747925,-33.351135,-25.753784,-0.41644287,0.44487,-0.92689514,1.6122171,-0.76749676,-1.157484
19.747925,-33.351135,-25.753784,-0.41644287,0.44487,-0.92689514,1.6122171,-0.76749676,-1.157484
19.747925,-33.351135,-25.753784,-0.41644287,0.44487,-0.92689514,1.6122171,-0.76749676,-1.157484
19.747925,-33.351135,-25.753784,-0.41644287,0.44487,-0.92689514,1.6122171,-0.76749676,-1.157484
19.747925,-33.351135,-25.753784,-0.41644287,0.44487,-0.92689514,1.6122171,-0.76749676,-1.157484
19.747925,-33.351135,-25.753784,-0.41644287,0.44487,-0.92689514,1.6122171,-0.76749676,-1.157484
19.747925,-33.351135,-25.753784,-0.41644287,0.44487,-0.92689514,1.6122171,-0.76749676,-1.157484
19.747925,-33.351135,-25.753784,-0.41644287,0.44487,-0.92689514,1.6122171,-0.76749676,-1.157484
19.747925,-33.351135,-25.753784,-0.41644287,0.44487,-0.92689514,1.6122171,-0.76749676,-1.157484
19.747925,-33.351135,-25.753784,-0.41644287,0.44487,-0.92689514,1.6122171,-0.76749676,-1.157484
19.747925,-33.351135,-25.753784,-0.41644287,0.44487,-0.92689514,1.6122171,-0.76749676,-1.157484
19.747925,-33.351135,-25.753784,-0.41644287,0.44487,-0.92689514,1.6122171,-0.76749676,-1.157484
19.747925,-33.351135,-25.753784,-0.41644287,0.44487,-0.92689514,1.6122171,-0.76749676,-1.157484
19.747925,-33.351135,-25.753784,0.12573242,-0.095443726,-0.6764679,1.5097898,-0.4668865,-0.48861408
19.747925,-33.351135,-25.753784,0.12573242,-0.095443726,-0.6764679,1.5097898,-0.4668865,-0.48861408
19.747925,-33.351135,-25.753784,0.12573242,-0.095443726,-0.6764679,1.5097898,-0.4668865,-0.48861408
26.678467,-30.213928,-24.993896,0.12573242,-0.095443726,-0.6764679,1.5097898,-0.4668865,-0.48861408
26.678467,-30.213928,-24.993896,0.12573242,-0.095443726,-0.6764679,2.407071,-0.4636469,0.4576187
26.678467,-30.213928,-24.993896,0.33761597,0.107284546,-1.0807037,2.407071,-0.4636469,0.4576187
26.678467,-30.213928,-24.993896,0.33761597,0.107284546,-1.0807037,2.407071,-0.4636469,0.4576187
26.678467,-30.213928,-24.993896,0.33761597,0.107284546,-1.0807037,2.407071,-0.4636469,0.4576187
26.678467,-30.213928,-24.993896,0.33761597,0.107284546,-1.0807037,2.407071,-0.4636469,0.4576187
26.678467,-30.213928,-24.993896,0.33761597,0.107284546,-1.0807037,2.407071,-0.4636469,0.4576187
26.678467,-30.213928,-24.993896,0.33761597,0.107284546,-1.0807037,2.407071,-0.4636469,0.4576187
26.678467,-30.213928,-24.993896,0.33761597,0.107284546,-1.0807037,2.407071,-0.4636469,0.4576187
26.678467,-30.213928,-24.993896,0.33761597,0.107284546,-1.0807037,2.407071,-0.4636469,0.4576187
26.678467,-30.213928,-24.993896,0.33761597,0.107284546,-1.0807037,2.407071,-0.4636469,0.4576187
26.678467,-30.213928,-24.993896,0.33761597,0.107284546,-1.0807037,2.407071,-0.4636469,0.4576187
26.678467,-30.213928,-24.993896,0.33761597,0.107284546,-1.0807037,2.407071,-0.4636469,0.4576187
26.678467,-30.213928,-24.993896,0.33761597,0.107284546,-1.0807037,2.407071,-0.4636469,0.4576187
26.678467,-30.213928,-24.993896,0.33761597,0.107284546,-1.0807037,2.407071,-0.4636469,0.4576187
26.678467,-30.213928,-24.993896,0.33761597,0.107284546,-1.0807037,2.407071,-0.4636469,0.4576187
26.678467,-30.213928,-24.993896,0.33761597,0.107284546,-1.0807037,2.407071,-0.4636469,0.4576187
26.678467,-30.213928,-24.993896,0.33761597,0.107284546,-1.0807037,2.407071,-0.4636469,0.4576187
26.678467,-30.213928,-24.993896,0.33761597,0.107284546,-1.0807037,2.407071,-0.4636469,0.4576187
26.678467,-30.213928,-24.993896,0.33761597,0.107284546,-1.0807037,2.407071,-0.4636469,0.4576187
26.678467,-30.213928,-24.993896,0.33761597,0.107284546,-1.0807037,2.407071,-0.4636469,0.4576187
26.678467,-30.213928,-24.993896,0.33761597,0.107284546,-1.0807037,2.407071,-0.4636469,0.4576187
26.678467,-30.213928,-24.993896,0.33761597,0.107284546,-1.0807037,2.407071,-0.4636469,0.4576187
26.678467,-30.213928,-24.993896,0.33761597,0.107284546,-1.0807037,2.407071,-0.4636469,0.4576187
26.678467,-30.213928,-24.993896,0.33761597,0.107284546,-1.0807037,2.407071,-0.4636469,0.4576187
26.678467,-30.213928,-24.993896,0.33761597,0.107284546,-1.0807037,2.407071,-0.4636469,0.4576187
26.678467,-30.213928,-24.993896,0.33761597,0.107284546,-1.0807037,2.407071,-0.4636469,0.4576187
26.678467,-30.213928,-24.993896,0.33761597,0.107284546,-1.0807037,2.407071,-0.4636469,0.4576187
26.678467,-30.213928,-24.993896,0.33761597,0.107284546,-1.0807037,2.407071,-0.4636469,0.4576187
26.678467,-30.213928,-24.993896,0.33761597,0.107284546,-1.0807037,2.407071,-0.4636469,0.4576187
26.678467,-30.213928,-24.993896,0.33761597,0.107284546,-1.0807037,2.407071,-0.4636469,0.4576187
33.12683,-24.545288,-23.147583,0.51086426,-0.2682495,-1.0437317,1.4066187,-1.4465123,0.9866152
33.12683,-24.545288,-23.147583,0.51086426,-0.2682495,-1.0437317,1.4066187,-1.4465123,0.9866152
33.12683,-24.545288,-23.147583,0.51086426,-0.2682495,-1.0437317,1.4066187,-1.4465123,0.9866152
33.12683,-24.545288,-23.147583,0.51086426,-0.2682495,-1.0437317,1.4066187,-1.4465123,0.9866152
33.12683,-24.545288,-23.147583,0.51086426,-0.2682495,-1.0437317,1.4066187,-1.4465123,0.9866152
33.12683,-24.545288,-23.147583,0.51086426,-0.2682495,-1.0437317,1.4066187,-1.4465123,0.9866152
33.12683,-24.545288,-23.147583,0.51086426,-0.2682495,-1.0437317,1.4066187,-1.4465123,0.9866152
33.12683,-24.545288,-23.147583,0.51086426,-0.2682495,-1.0437317,1.4066187,-1.4465123,0.9866152
33.12683,-24.545288,-23.147583,-0.33128357,0.15742493,-1.2524567,1.8882786,-0.43643507,0.7236309
39.4989,-13.647461,-22.97821,-0.33128357,0.15742493,-1.2524567,1.8882786,-0.43643507,0.7236309
39.4989,-13.647461,-22.97821,-0.33128357,0.15742493,-1.2524567,1.8882786,-0.43643507,0.7236309
39.4989,-13.647461,-22.97821,-0.33128357,0.15742493,-1.2524567,1.8882786,-0.43643507,0.7236309
39.4989,-13.647461,-22.97821,-0.33128357,0.15742493,-1.2524567,1.8882786,-0.43643507,0.7236309
39.4989,-13.647461,-22.97821,-0.33128357,0.15742493,-1.2524567,1.8882786,-0.43643507,0.7236309
39.4989,-13.647461,-22.97821,-0.33128357,0.15742493,-1.2524567,1.8882786,-0.43643507,0.7236309
39.4989,-13.647461,-22.97821,-0.33128357,0.15742493,-1.2524567,1.8882786,-0.43643507,0.7236309
39.4989,-13.647461,-22.97821,-0.33128357,0.15742493,-1.2524567,1.8882786,-0.43643507,0.7236309
39.4989,-13.647461,-22.97821,-0.33128357,0.15742493,-1.2524567,1.8882786,-0.43643507,0.7236309
39.4989,-13.647461,-22.97821,-0.33128357,0.15742493,-1.2524567,1.8882786,-0.43643507,0.7236309
39.4989,-13.647461,-22.97821,-0.33128357,0.15742493,-1.2524567,1.8882786,-0.43643507,0.7236309
39.4989,-13.647461,-22.97821,-0.33128357,0.15742493,-1.2524567,1.8882786,-0.43643507,0.7236309
39.4989,-13.647461,-22.97821,-0.33128357,0.15742493,-1.2524567,1.8882786,-0.43643507,0.7236309
39.4989,-13.647461,-22.97821,-0.33128357,0.15742493,-1.2524567,1.8882786,-0.43643507,0.7236309
39.4989,-13.647461,-22.97821,-0.33128357,0.15742493,-1.2524567,1.8882786,-0.43643507,0.7236309
39.4989,-13.647461,-22.97821,-0.33128357,0.15742493,-1.2524567,1.8882786,-0.43643507,0.7236309
39.4989,-13.647461,-22.97821,-0.33128357,0.15742493,-1.2524567,1.8882786,-0.43643507,0.7236309
39.4989,-13.647461,-22.97821,-0.33128357,0.15742493,-1.2524567,1.8882786,-0.43643507,0.7236309
39.4989,-13.647461,-22.97821,-0.33128357,0.15742493,-1.2524567,1.8882786,-0.43643507,0.7236309
39.4989,-13.647461,-22.97821,-0.33128357,0.15742493,-1.2524567,1.8882786,-0.43643507,0.7236309
39.4989,-13.647461,-22.97821,-0.33128357,0.15742493,-1.2524567,1.8882786,-0.43643507,0.7236309
39.4989,-13.647461,-22.97821,-0.33128357,0.15742493,-1.2524567,1.8882786,-0.43643507,0.7236309
39.4989,-13.647461,-22.97821,-0.33128357,0.15742493,-1.2524567,1.8882786,-0.43643507,0.7236309
39.4989,-13.647461,-22.97821,-0.33128357,0.15742493,-1.2524567,1.8882786,-0.43643507,0.7236309
39.4989,-13.647461,-22.97821,-0.33128357,0.15742493,-1.2524567,1.8882786,-0.43643507,0.7236309
39.4989,-13.647461,-22.97821,-0.33128357,0.15742493,-1.2524567,1.8882786,-0.43643507,0.7236309
39.4989,-13.647461,-22.97821,-0.33128357,0.15742493,-1.2524567,1.8882786,-0.43643507,0.7236309
40.115356,-3.8391113,-21.836853,0.36437988,0.014389038,-1.359909,2.3169255,-0.25121707,-1.0011034
40.115356,-3.8391113,-21.836853,0.36437988,0.014389038,-1.359909,2.3169255,-0.25121707,-1.0011034
40.115356,-3.8391113,-21.836853,0.36437988,0.014389038,-1.359909,2.3169255,-0.25121707,-1.0011034
40.115356,-3.8391113,-21.836853,0.36437988,0.014389038,-1.359909,2.3169255,-0.25121707,-1.0011034
40.115356,-3.8391113,-21.836853,0.36437988,0.014389038,-1.359909,2.3169255,-0.25121707,-1.0011034
40.115356,-3.8391113,-21.836853,0.36437988,0.014389038,-1.359909,2.3169255,-0.25121707,-1.0011034
40.115356,-3.8391113,-21.836853,0.36437988,0.014389038,-1.359909,2.3169255,-0.25121707,-1.0011034
40.115356,-3.8391113,-21.836853,0.36437988,0.014389038,-1.359909,2.3169255,-0.25121707,-1.0011034
40.115356,-3.8391113,-21.836853,0.36437988,0.014389038,-1.359909,2.3169255,-0.25121707,-1.0011034
40.115356,-3.8391113,-21.836853,0.36437988,0.014389038,-1.359909,2.3169255,-0.25121707,-1.0011034
40.115356,-3.8391113,-21.836853,0.19766235,-0.2163086,-1.6564789,2.7033262,-1.1561792,0.84734917
40.115356,-3.8391113,-21.836853,0.19766235,-0.2163086,-1.6564789,2.7033262,-1.1561792,0.84734917
40.115356,-3.8391113,-21.836853,0.19766235,-0.2163086,-1.6564789,2.7033262,-1.1561792,0.84734917
36.35254,6.7886353,-21.50116,0.19766235,-0.2163086,-1.6564789,2.7033262,-1.1561792,0.84734917
36.35254,6.7886353,-21.50116,0.19766235,-0.2163086,-1.6564789,2.7033262,-1.1561792,0.84734917
36.35254,6.7886353,-21.50116,0.19766235,-0.2163086,-1.6564789,2.7033262,-1.1561792,0.84734917
36.35254,6.7886353,-21.50116,0.19766235,-0.2163086,-1.6564789,2.7033262,-1.1561792,0.84734917
36.35254,6.7886353,-21.50116,0.19766235,-0.2163086,-1.6564789,2.7033262,-1.1561792,0.84734917
36.35254,6.7886353,-21.50116,0.19766235,-0.2163086,-1.6564789,2.7033262,-1.1561792,0.84734917
36.35254,6.7886353,-21.50116,0.19766235,-0.2163086,-1.6564789,2.7033262,-1.1561792,0.84734917
36.35254,6.7886353,-21.50116,0.19766235,-0.2163086,-1.6564789,2.7033262,-1.1561792,0.84734917
36.35254,6.7886353,-21.50116,0.19766235,-0.2163086,-1.6564789,2.7033262,-1.1561792,0.84734917
36.35254,6.7886353,-21.50116,0.19766235,-0.2163086,-1.6564789,2.7033262,-1.1561792,0.84734917
36.35254,6.7886353,-21.50116,0.19766235,-0.2163086,-1.6564789,2.7033262,-1.1561792,0.84734917
36.35254,6.7886353,-21.50116,0.19766235,-0.2163086,-1.6564789,2.7033262,-1.1561792,0.84734917
36.35254,6.7886353,-21.50116,0.19766235,-0.2163086,-1.6564789,2.7033262,-1.1561792,0.84734917
36.35254,6.7886353,-21.50116,0.19766235,-0.2163086,-1.6564789,2.7033262,-1.1561792,0.84734917
36.35254,6.7886353,-21.50116,0.19766235,-0.2163086,-1.6564789,2.7033262,-1.1561792,0.84734917
36.35254,6.7886353,-21.50116,0.19766235,-0.2163086,-1.6564789,2.7033262,-1.1561792,0.84734917
36.35254,6.7886353,-21.50116,0.19766235,-0.2163086,-1.6564789,2.7033262,-1.1561792,0.84734917
36.35254,6.7886353,-21.50116,0.19766235,-0.2163086,-1.6564789,2.7033262,-1.1561792,0.84734917
36.35254,6.7886353,-21.50116,0.19766235,-0.2163086,-1.6564789,2.7033262,-1.1561792,0.84734917
36.35254,6.7886353,-21.50116,0.19766235,-0.2163086,-1.6564789,2.7033262,-1.1561792,0.84734917
36.35254,6.7886353,-21.50116,0.39057922,-0.05784607,-1.435257,0.99492973,-0.74834335,-1.4848919
30.316162,17.822266,-21.635437,0.39057922,-0.05784607,-1.435257,0.99492973,-0.74834335,-1.4848919
30.316162,17.822266,-21.635437,0.39057922,-0.05784607,-1.435257,0.99492973,-0.74834335,-1.4848919
30.316162,17.822266,-21.635437,0.39057922,-0.05784607,-1.435257,0.99492973,-0.74834335,-1.4848919
30.316162,17.822266,-21.635437,0.39057922,-0.05784607,-1.435257,0.99492973,-0.74834335,-1.4848919
30.316162,17.822266,-21.635437,0.39057922,-0.05784607,-1.435257,0.99492973,-0.74834335,-1.4848919
30.316162,17.822266,-21.635437,0.39057922,-0.05784607,-1.435257,0.99492973,-0.74834335,-1.4848919
30.316162,17.822266,-21.635437,0.39057922,-0.05784607,-1.435257,0.99492973,-0.74834335,-1.4848919
30.316162,17.822266,-21.635437,0.39057922,-0.05784607,-1.435257,0.99492973,-0.74834335,-1.4848919
30.316162,17.822266,-21.635437,0.39057922,-0.05784607,-1.435257,0.99492973,-0.74834335,-1.4848919
30.316162,17.822266,-21.635437,0.39057922,-0.05784607,-1.435257,0.99492973,-0.74834335,-1.4848919
30.316162,17.822266,-21.635437,0.39057922,-0.05784607,-1.435257,0.99492973,-0.74834335,-1.4848919
30.316162,17.822266,-21.635437,0.39057922,-0.05784607,-1.435257,0.99492973,-0.74834335,-1.4848919
30.316162,17.822266,-21.635437,0.39057922,-0.05784607,-1.435257,0.99492973,-0.74834335,-1.4848919
30.316162,17.822266,-21.635437,0.39057922,-0.05784607,-1.435257,0.99492973,-0.74834335,-1.4848919
30.316162,17.822266,-21.635437,0.39057922,-0.05784607,-1.435257,0.99492973,-0.74834335,-1.4848919
30.316162,17.822266,-21.635437,0.39057922,-0.05784607,-1.435257,0.99492973,-0.74834335,-1.4848919
30.316162,17.822266,-21.635437,0.39057922,-0.05784607,-1.435257,0.99492973,-0.74834335,-1.4848919
30.316162,17.822266,-21.635437,0.39057922,-0.05784607,-1.435257,0.99492973,-0.74834335,-1.4848919
30.316162,17.822266,-21.635437,0.39057922,-0.05784607,-1.435257,0.99492973,-0.74834335,-1.4848919
30.316162,17.822266,-21.635437,0.39057922,-0.05784607,-1.435257,0.99492973,-0.74834335,-1.4848919
30.316162,17.822266,-21.635437,0.39057922,-0.05784607,-1.435257,0.99492973,-0.74834335,-1.4848919
30.316162,17.822266,-21.635437,0.39057922,-0.05784607,-1.435257,0.99492973,-0.74834335,-1.4848919
30.316162,17.822266,-21.635437,0.39057922,-0.05784607,-1.435257,0.99492973,-0.74834335,-1.4848919
30.316162,17.822266,-21.635437,0.39057922,-0.05784607,-1.435257,0.99492973,-0.74834335,-1.4848919
30.316162,17.822266,-21.635437,0.39057922,-0.05784607,-1.435257,0.99492973,-0.74834335,-1.4848919
30.316162,17.822266,-21.635437,0.39057922,-0.05784607,-1.435257,0.99492973,-0.74834335,-1.4848919
30.316162,17.822266,-21.635437,0.39057922,-0.05784607,-1.435257,0.99492973,-0.74834335,-1.4848919
30.316162,17.822266,-21.635437,0.39057922,-0.05784607,-1.435257,0.99492973,-0.74834335,-1.4848919
30.316162,17.822266,-21.635437,0.39057922,-0.05784607,-1.435257,0.99492973,-0.74834335,-1.4848919
30.316162,17.822266,-21.635437,0.39057922,-0.05784607,-1.435257,0.99492973,-0.74834335,-1.4848919
30.316162,17.822266,-21.635437,0.39057922,-0.05784607,-1.435257,0.99492973,-0.74834335,-1.4848919
30.316162,17.822266,-21.635437,0.39057922,-0.05784607,-1.435257,0.99492973,-0.74834335,-1.4848919
22.784424,21.990967,-23.919678,0.000869751,-0.21037292,-1.775238,1.1894846,-1.1545167,2.7855902
22.784424,21.990967,-23.919678,0.24107361,0.27667236,-1.1735077,1.6722516,-1.0359509,-2.318573
22.784424,21.990967,-23.919678,0.24107361,0.27667236,-1.1735077,1.6722516,-1.0359509,-2.318573
22.784424,21.990967,-23.919678,0.24107361,0.27667236,-1.1735077,1.6722516,-1.0359509,-2.318573
22.784424,21.990967,-23.919678,0.24107361,0.27667236,-1.1735077,1.6722516,-1.0359509,-2.318573
22.784424,21.990967,-23.919678,0.24107361,0.27667236,-1.1735077,1.6722516,-1.0359509,-2.318573
22.784424,21.990967,-23.919678,0.24107361,0.27667236,-1.1735077,1.6722516,-1.0359509,-2.318573
22.784424,21.990967,-23.919678,0.24107361,0.27667236,-1.1735077,1.6722516,-1.0359509,-2.318573
16.963196,25.468445,-25.66681,0.24107361,0.27667236,-1.1735077,1.6722516,-1.0359509,-2.318573
16.963196,25.468445,-25.66681,0.24107361,0.27667236,-1.1735077,1.6722516,-1.0359509,-2.318573
16.963196,25.468445,-25.66681,0.24107361,0.27667236,-1.1735077,1.6722516,-1.0359509,-2.318573
16.963196,25.468445,-25.66681,0.24107361,0.27667236,-1.1735077,1.6722516,-1.0359509,-2.318573
16.963196,25.468445,-25.66681,0.24107361,0.27667236,-1.1735077,1.6722516,-1.0359509,-2.318573
16.963196,25.468445,-25.66681,0.24107361,0.27667236,-1.1735077,1.6722516,-1.0359509,-2.318573
16.963196,25.468445,-25.66681,0.24107361,0.27667236,-1.1735077,1.6722516,-1.0359509,-2.318573
16.963196,25.468445,-25.66681,0.24107361,0.27667236,-1.1735077,1.6722516,-1.0359509,-2.318573
16.963196,25.468445,-25.66681,0.24107361,0.27667236,-1.1735077,1.6722516,-1.0359509,-2.318573
16.963196,25.468445,-25.66681,0.24107361,0.27667236,-1.1735077,1.6722516,-1.0359509,-2.318573
16.963196,25.468445,-25.66681,0.24107361,0.27667236,-1.1735077,1.6722516,-1.0359509,-2.318573
16.963196,25.468445,-25.66681,0.24107361,0.27667236,-1.1735077,1.6722516,-1.0359509,-2.318573
16.963196,25.468445,-25.66681,0.24107361,0.27667236,-1.1735077,1.6722516,-1.0359509,-2.318573
16.963196,25.468445,-25.66681,0.24107361,0.27667236,-1.1735077,1.6722516,-1.0359509,-2.318573
16.963196,25.468445,-25.66681,0.24107361,0.27667236,-1.1735077,1.6722516,-1.0359509,-2.318573
16.963196,25.468445,-25.66681,0.24107361,0.27667236,-1.1735077,1.6722516,-1.0359509,-2.318573
16.963196,25.468445,-25.66681,0.24107361,0.27667236,-1.1735077,1.6722516,-1.0359509,-2.318573
16.963196,25.468445,-25.66681,0.24107361,0.27667236,-1.1735077,1.6722516,-1.0359509,-2.318573
16.963196,25.468445,-25.66681,0.24107361,0.27667236,-1.1735077,1.6722516,-1.0359509,-2.318573
16.963196,25.468445,-25.66681,0.24107361,0.27667236,-1.1735077,1.6722516,-1.0359509,-2.318573
16.963196,25.468445,-25.66681,0.24107361,0.27667236,-1.1735077,1.6722516,-1.0359509,-2.318573
16.963196,25.468445,-25.66681,0.24107361,0.27667236,-1.1735077,1.6722516,-1.0359509,-2.318573
16.963196,25.468445,-25.66681,0.24107361,0.27667236,-1.1735077,1.6722516,-1.0359509,-2.318573
16.963196,25.468445,-25.66681,0.24107361,0.27667236,-1.1735077,1.6722516,-1.0359509,-2.318573
16.963196,25.468445,-25.66681,0.24107361,0.27667236,-1.1735077,1.6722516,-1.0359509,-2.318573
4.220581,30.233765,-25.935364,-0.5648804,-0.33709717,-1.1688538,0.981058,1.5414959,0.25135708
4.220581,30.233765,-25.935364,-0.5648804,-0.33709717,-1.1688538,0.981058,1.5414959,0.25135708
4.220581,30.233765,-25.935364,-0.5648804,-0.33709717,-1.1688538,0.981058,1.5414959,0.25135708
4.220581,30.233765,-25.935364,-0.5648804,-0.33709717,-1.1688538,0.981058,1.5414959,0.25135708
4.220581,30.233765,-25.935364,-0.5648804,-0.33709717,-1.1688538,0.981058,1.5414959,0.25135708
4.220581,30.233765,-25.935364,-0.5648804,-0.33709717,-1.1688538,0.981058,1.5414959,0.25135708
4.220581,30.233765,-25.935364,-0.5648804,-0.33709717,-1.1688538,0.981058,1.5414959,0.25135708
4.220581,30.233765,-25.935364,0.26574707,0.034194946,-0.74635315,0.25309074,0.7106593,-0.39488983
4.220581,30.233765,-25.935364,0.26574707,0.034194946,-0.74635315,0.25309074,0.7106593,-0.39488983
4.220581,30.233765,-25.935364,0.26574707,0.034194946,-0.74635315,0.25309074,0.7106593,-0.39488983
4.220581,30.233765,-25.935364,0.26574707,0.034194946,-0.74635315,0.25309074,0.7106593,-0.39488983
4.220581,30.233765,-25.935364,0.26574707,0.034194946,-0.74635315,0.25309074,0.7106593,-0.39488983
4.220581,30.233765,-25.935364,0.26574707,0.034194946,-0.74635315,0.25309074,0.7106593,-0.39488983
4.220581,30.233765,-25.935364,0.26574707,0.034194946,-0.74635315,0.25309074,0.7106593,-0.39488983
4.220581,30.233765,-25.935364,0.26574707,0.034194946,-0.74635315,0.25309074,0.7106593,-0.39488983
4.220581,30.233765,-25.935364,0.26574707,0.034194946,-0.74635315,0.25309074,0.7106593,-0.39488983
4.220581,30.233765,-25.935364,0.26574707,0.034194946,-0.74635315,0.25309074,0.7106593,-0.39488983
4.220581,30.233765,-25.935364,0.26574707,0.034194946,-0.74635315,0.25309074,0.7106593,-0.39488983
4.220581,30.233765,-25.935364,0.26574707,0.034194946,-0.74635315,0.25309074,0.7106593,-0.39488983
4.220581,30.233765,-25.935364,0.26574707,0.034194946,-0.74635315,0.25309074,0.7106593,-0.39488983
4.220581,30.233765,-25.935364,0.26574707,0.034194946,-0.74635315,0.25309074,0.7106593,-0.39488983
4.220581,30.233765,-25.935364,0.26574707,0.034194946,-0.74635315,0.25309074,0.7106593,-0.39488983
4.220581,30.233765,-25.935364,0.26574707,0.034194946,-0.74635315,0.25309074,0.7106593,-0.39488983
4.220581,30.233765,-25.935364,0.26574707,0.034194946,-0.74635315,0.25309074,0.7106593,-0.39488983
4.220581,30.233765,-25.935364,0.26574707,0.034194946,-0.74635315,0.25309074,0.7106593,-0.39488983
4.220581,30.233765,-25.935364,0.26574707,0.034194946,-0.74635315,0.25309074,0.7106593,-0.39488983
4.220581,30.233765,-25.935364,0.26574707,0.034194946,-0.74635315,0.25309074,0.7106593,-0.39488983
4.220581,30.233765,-25.935364,0.26574707,0.034194946,-0.74635315,0.25309074,0.7106593,-0.39488983
4.220581,30.233765,-25.935364,0.26574707,0.034194946,-0.74635315,0.25309074,0.7106593,-0.39488983
4.220581,30.233765,-25.935364,0.26574707,0.034194946,-0.74635315,0.25309074,0.7106593,-0.39488983
4.220581,30.233765,-25.935364,0.26574707,0.034194946,-0.74635315,0.25309074,0.7106593,-0.39488983
-0.642395,31.16455,-26.506042,0.29148865,-0.17892456,-0.60627747,0.3757287,-0.0092481375,1.5887966
-0.642395,31.16455,-26.506042,0.29148865,-0.17892456,-0.60627747,0.3757287,-0.0092481375,1.5887966
-0.642395,31.16455,-26.506042,0.29148865,-0.17892456,-0.60627747,0.3757287,-0.0092481375,1.5887966
-0.642395,31.16455,-26.506042,0.29148865,-0.17892456,-0.60627747,0.3757287,-0.0092481375,1.5887966
-5.0186157,29.67987,-26.533508,0.29148865,-0.17892456,-0.60627747,0.3757287,-0.0092481375,1.5887966
-5.0186157,29.67987,-26.533508,0.29148865,-0.17892456,-0.60627747,0.3757287,-0.0092481375,1.5887966
-5.0186157,29.67987,-26.533508,0.29148865,-0.17892456,-0.60627747,0.3757287,-0.0092481375,1.5887966
-5.0186157,29.67987,-26.533508,0.29148865,-0.17892456,-0.60627747,0.3757287,-0.0092481375,1.5887966
-5.0186157,29.67987,-26.533508,0.29148865,-0.17892456,-0.60627747,0.3757287,-0.0092481375,1.5887966
-5.0186157,29.67987,-26.533508,0.29148865,-0.17892456,-0.60627747,0.3757287,-0.0092481375,1.5887966
-5.0186157,29.67987,-26.533508,0.29148865,-0.17892456,-0.60627747,0.3757287,-0.0092481375,1.5887966
-5.0186157,29.67987,-26.533508,0.29148865,-0.17892456,-0.60627747,0.3757287,-0.0092481375,1.5887966
-5.0186157,29.67987,-26.533508,0.29148865,-0.17892456,-0.60627747,0.3757287,-0.0092481375,1.5887966
-5.0186157,29.67987,-26.533508,0.29148865,-0.17892456,-0.60627747,0.3757287,-0.0092481375,1.5887966
-5.0186157,29.67987,-26.533508,0.29148865,-0.17892456,-0.60627747,0.3757287,-0.0092481375,1.5887966
-5.0186157,29.67987,-26.533508,0.29148865,-0.17892456,-0.60627747,0.3757287,-0.0092481375,1.5887966
-5.0186157,29.67987,-26.533508,0.29148865,-0.17892456,-0.60627747,0.3757287,-0.0092481375,1.5887966
-5.0186157,29.67987,-26.533508,0.29148865,-0.17892456,-0.60627747,0.3757287,-0.0092481375,1.5887966
-5.0186157,29.67987,-26.533508,0.29148865,-0.17892456,-0.60627747,0.3757287,-0.0092481375,1.5887966
-5.0186157,29.67987,-26.533508,0.29148865,-0.17892456,-0.60627747,0.3757287,-0.0092481375,1.5887966
-5.0186157,29.67987,-26.533508,0.29148865,-0.17892456,-0.60627747,0.3757287,-0.0092481375,1.5887966
-5.0186157,29.67987,-26.533508,0.29148865,-0.17892456,-0.60627747,0.3757287,-0.0092481375,1.5887966
-5.0186157,29.67987,-26.533508,0.29148865,-0.17892456,-0.60627747,0.3757287,-0.0092481375,1.5887966
-5.0186157,29.67987,-26.533508,0.29148865,-0.17892456,-0.60627747,0.3757287,-0.0092481375,1.5887966
-5.0186157,29.67987,-26.533508,0.29148865,-0.17892456,-0.60627747,0.3757287,-0.0092481375,1.5887966
-5.0186157,29.67987,-26.533508,0.29148865,-0.17892456,-0.60627747,0.3757287,-0.0092481375,1.5887966
-5.0186157,29.67987,-26.533508,0.29148865,-0.17892456,-0.60627747,0.3757287,-0.0092481375,1.5887966
-5.0186157,29.67987,-26.533508,0.29148865,-0.17892456,-0.60627747,0.3757287,-0.0092481375,1.5887966
-5.0186157,29.67987,-26.533508,0.29148865,-0.17892456,-0.60627747,0.3757287,-0.0092481375,1.5887966
-5.0186157,29.67987,-26.533508,0.29148865,-0.17892456,-0.60627747,0.3757287,-0.0092481375,1.5887966
-5.0186157,29.67987,-26.533508,0.29148865,-0.17892456,-0.60627747,0.3757287,-0.0092481375,1.5887966
-5.0186157,29.67987,-26.533508,0.29148865,-0.17892456,-0.60627747,0.3757287,-0.0092481375,1.5887966
-5.0186157,29.67987,-26.533508,0.29148865,-0.17892456,-0.60627747,0.3757287,-0.0092481375,1.5887966
-5.0186157,29.67987,-26.533508,0.29148865,-0.17892456,-0.60627747,0.3757287,-0.0092481375,1.5887966
-13.853455,27.2995,-25.498962,0.3058777,-0.29858398,-0.18804932,0.3192682,0.46201283,1.0654154
-13.853455,27.2995,-25.498962,0.3058777,-0.29858398,-0.18804932,0.3192682,0.46201283,1.0654154
-13.853455,27.2995,-25.498962,0.3058777,-0.29858398,-0.18804932,0.3192682,0.46201283,1.0654154
-13.853455,27.2995,-25.498962,0.3058777,-0.29858398,-0.18804932,0.3192682,0.46201283,1.0654154
-13.853455,27.2995,-25.498962,0.3058777,-0.29858398,-0.18804932,0.3192682,0.46201283,1.0654154
-13.853455,27.2995,-25.498962,0.3058777,-0.29858398,-0.18804932,0.3192682,0.46201283,1.0654154
-13.853455,27.2995,-25.498962,0.3058777,-0.29858398,-0.18804932,0.3192682,0.46201283,1.0654154
-13.853455,27.2995,-25.498962,0.3058777,-0.29858398,-0.18804932,0.3192682,0.46201283,1.0654154
-13.853455,27.2995,-25.498962,0.3058777,-0.29858398,-0.18804932,0.3192682,0.46201283,1.0654154
-13.853455,27.2995,-25.498962,0.3058777,-0.29858398,-0.18804932,0.3192682,0.46201283,1.0654154
-13.853455,27.2995,-25.498962,0.3058777,-0.29858398,-0.18804932,0.3192682,0.46201283,1.0654154
-15.472412,25.58136,-25.357056,0.3058777,-0.29858398,-0.18804932,0.3192682,0.46201283,1.0654154
-15.472412,25.58136,-25.357056,0.3058777,-0.29858398,-0.18804932,0.3192682,0.46201283,1.0654154
-15.472412,25.58136,-25.357056,0.3058777,-0.29858398,-0.18804932,0.3192682,0.46201283,1.0654154
-15.472412,25.58136,-25.357056,0.3058777,-0.29858398,-0.18804932,0.3192682,0.46201283,1.0654154
-15.472412,25.58136,-25.357056,0.3058777,-0.29858398,-0.18804932,0.3192682,0.46201283,1.0654154
-15.472412,25.58136,-25.357056,0.3058777,-0.29858398,-0.18804932,0.3192682,0.46201283,1.0654154
-15.472412,25.58136,-25.357056,0.3058777,-0.29858398,-0.18804932,0.3192682,0.46201283,1.0654154
